"onset"	"duration"	"trial_type"	"response_time"	"accuracy"
3e-04	2.354	"IncongMix"	0.404	1
2.3673	2.083	"CongMix"	0.333	1
4.4673	2.32	"IncongMix"	0.353	0
6.8003	2.444	"CongMix"	0.428	1
9.2493	2.378	"CongMix"	0.379	1
11.6323	2.815	"CongMix"	0.532	1
14.4493	2.567	"CongMix"	0.467	1
17.0323	2.301	"IncongMix"	0.451	1
19.3483	2.251	"IncongMix"	0.535	1
21.6143	2.008	"IncongMix"	0.541	1
23.6313	2.9	"IncongMix"	0.5	1
26.5473	2.172	"IncongMix"	0.472	1
28.7303	2.445	"CongMix"	0.345	1
31.1803	2.116	"CongMix"	0.383	1
33.3133	2.821	"CongMix"	0.354	1
36.1463	2.561	"CongMix"	0.361	1
38.7123	2.576	"IncongMix"	0.41	1
41.2953	2.742	"IncongMix"	0.459	1
44.0453	2.004	"IncongMix"	0.421	1
46.0613	2.896	"CongMix"	0.429	1
48.9613	2.377	"CongMix"	0.377	1
51.3443	2.206	"CongMix"	0.49	1
53.5603	2.855	"CongMix"	0.338	1
56.4273	2.111	"IncongMix"	0.511	1
58.5433	1.912	"IncongMix"	0.379	1
60.4593	2.203	"IncongMix"	0.486	1
62.6763	2.123	"IncongMix"	0.573	1
64.8093	2.167	"CongMix"	0.6	1
66.9923	2.241	"IncongMix"	0.841	1
69.2423	2.021	"CongMix"	0.487	1
71.2753	2.697	"IncongMix"	0.598	1
73.9743	2.894	"IncongMix"	0.411	1
76.8743	2.176	"IncongMix"	0.343	1
79.0573	2.872	"IncongMix"	0.456	1
81.9403	2.461	"CongMix"	0.428	1
84.4063	2.094	"CongMix"	0.378	1
86.5063	2.352	"IncongMix"	0.486	1
88.8723	2.571	"IncongMix"	0.488	1
91.4553	2.746	"IncongMix"	0.513	1
94.2053	2.319	"CongMix"	0.403	1
96.5383	2.609	"CongMix"	0.51	1
99.1543	2.888	"IncongMix"	0.438	1
102.0543	2.252	"CongMix"	0.353	1
104.3203	2.006	"IncongMix"	0.439	1
106.3373	2.858	"CongMix"	0.358	1
109.2033	2.727	"IncongMix"	0.444	1
111.9363	1.94	"IncongMix"	0.423	1
113.8863	2.672	"CongMix"	0.305	1
116.5693	2.104	"IncongMix"	0.422	1
118.6853	2.387	"CongMix"	0.354	1
121.0853	2.13	"CongMix"	0.33	1
123.2183	2.803	"IncongMix"	0.437	1
126.0343	2.245	"IncongMix"	0.412	1
128.2843	2.629	"CongMix"	0.346	1
130.9173	2.61	"CongMix"	0.361	1
133.5333	2.733	"IncongMix"	0.417	1
136.2833	2.246	"CongMix"	0.379	1
138.5333	1.959	"CongMix"	0.393	1
140.4993	2.713	"CongMix"	0.347	1
143.2153	1.945	"CongMix"	0.295	1
145.1653	2.505	"IncongMix"	0.289	0
147.6813	2.501	"IncongMix"	0.468	1
150.1983	2.534	"CongMix"	0.551	1
152.7473	2.867	"IncongMix"	0.434	1
155.6303	2.632	"CongMix"	0.383	1
158.2633	2.216	"CongMix"	0.55	1
160.4963	2.176	"CongMix"	0.509	1
162.6803	1.933	"IncongMix"	0.533	1
164.6293	2.792	"CongMix"	0.376	1
167.4293	2.284	"CongMix"	0.351	1
169.7293	2.08	"IncongMix"	0.363	0
171.8123	2.044	"IncongMix"	0.496	1
184.7933	2.403	"Congruent1"	0.403	1
187.2103	2.412	"Congruent1"	0.346	1
189.6263	2.417	"Congruent1"	0.401	1
192.0593	2.428	"Congruent1"	0.312	1
194.4923	2.403	"Congruent1"	0.319	1
196.9093	2.421	"Congruent1"	0.438	1
199.3413	2.419	"Congruent1"	0.502	1
201.7753	2.414	"Congruent1"	0.364	1
204.1913	2.415	"Congruent1"	0.316	1
206.6073	2.406	"Congruent1"	0.356	1
209.0243	2.42	"Congruent1"	0.387	1
211.4573	2.42	"Congruent1"	0.353	1
213.8903	2.417	"Congruent1"	0.384	1
216.3233	2.408	"Congruent1"	0.375	1
218.7393	2.414	"Congruent1"	0.431	1
221.1553	2.424	"Congruent1"	0.375	1
223.5883	2.41	"Congruent1"	0.31	1
226.0053	2.407	"Congruent1"	0.557	1
228.4213	2.421	"Congruent1"	0.405	1
230.8543	2.407	"Congruent1"	0.508	1
233.2703	2.415	"Congruent1"	0.315	1
235.6873	2.429	"Congruent1"	0.362	1
238.1203	2.41	"Congruent1"	0.377	1
240.5363	2.411	"Congruent1"	0.377	1
242.9533	2.409	"Congruent1"	0.376	1
245.3693	2.422	"Congruent1"	0.472	1
247.8023	2.416	"Congruent1"	0.383	1
250.2353	2.421	"Congruent1"	0.438	1
252.6683	2.413	"Congruent1"	0.397	1
255.0843	2.419	"Congruent1"	0.436	1
257.5173	2.412	"Congruent1"	0.595	1
259.9343	2.41	"Congruent1"	0.41	1
262.3503	2.412	"Congruent1"	0.346	1
264.7663	2.418	"Congruent1"	0.402	1
267.1993	2.417	"Congruent1"	0.401	1
269.6323	2.41	"Congruent1"	0.36	1
272.0493	2.415	"Congruent1"	0.415	1
274.4653	2.416	"Congruent1"	0.399	1
276.8823	2.423	"Congruent1"	0.373	1
279.3153	2.414	"Congruent1"	0.364	1
281.7313	2.42	"Congruent1"	0.42	1
284.1643	2.405	"Congruent1"	0.339	1
286.5803	2.412	"Congruent1"	0.395	1
288.9973	2.413	"Congruent1"	0.33	1
291.4133	2.42	"Congruent1"	0.354	1
293.8463	2.418	"Congruent1"	0.385	0
296.2793	2.418	"Congruent1"	0.368	1
298.7123	2.416	"Congruent1"	0.366	1
301.1453	2.404	"Congruent1"	0.421	1
303.5613	2.414	"Congruent1"	0.397	1
305.9783	2.428	"Congruent1"	0.428	1
308.4113	2.411	"Congruent1"	0.411	1
310.8273	2.411	"Congruent1"	0.411	1
313.2443	2.426	"Congruent1"	0.426	1
315.6773	2.402	"Congruent1"	0.369	1
318.0933	2.417	"Congruent1"	0.401	1
320.5263	2.424	"Congruent1"	0.391	1
322.9593	2.412	"Congruent1"	0.446	1
325.3753	2.415	"Congruent1"	0.366	1
327.7923	2.411	"Congruent1"	0.461	1
330.2083	2.41	"Congruent1"	0.461	1
332.6243	2.425	"Congruent1"	0.509	1
335.0573	2.407	"Congruent1"	0.324	1
337.4743	2.413	"Congruent1"	0.547	1
339.8903	2.414	"Congruent1"	0.331	1
342.3063	2.424	"Congruent1"	0.29	1
344.7403	2.409	"Congruent1"	0.392	1
347.1563	2.412	"Congruent1"	0.296	1
349.5723	2.427	"Congruent1"	0.344	1
352.0053	2.411	"Congruent1"	0.311	1
354.4223	2.406	"Congruent1"	0.406	1
356.8383	1.987	"Congruent1"	0.47	1
369.8203	1.937	"IncongMix"	0.471	1
371.7693	2.178	"IncongMix"	0.362	1
373.9523	2.355	"IncongMix"	0.355	1
376.3193	2.171	"CongMix"	0.404	1
378.5023	2.019	"IncongMix"	0.469	1
380.5353	2.118	"IncongMix"	0.652	1
382.6683	2.877	"IncongMix"	0.511	1
385.5513	2.687	"IncongMix"	0.387	1
388.2513	2.293	"CongMix"	0.327	1
390.5503	2.494	"IncongMix"	0.444	1
393.0503	1.967	"CongMix"	0.384	1
395.0333	2.708	"CongMix"	0.425	1
397.7493	2.806	"CongMix"	0.389	1
400.5663	2.87	"IncongMix"	0.42	1
403.4493	2.741	"IncongMix"	0.625	1
406.1983	2.885	"IncongMix"	0.435	1
409.0983	2.444	"CongMix"	0.327	1
411.5483	2.454	"IncongMix"	0.421	1
414.0143	2.389	"CongMix"	0.339	1
416.4143	2.786	"IncongMix"	0.603	1
419.2133	2.164	"CongMix"	0.364	1
421.3803	2.737	"IncongMix"	0.421	1
424.1293	2.145	"CongMix"	0.312	1
426.2793	2.452	"CongMix"	0.386	1
428.7453	2.369	"CongMix"	0.303	1
431.1283	2.848	"CongMix"	0.432	1
433.9783	2.816	"CongMix"	0.35	1
436.8113	2.631	"CongMix"	0.365	1
439.4443	2.293	"IncongMix"	0.276	0
441.7443	2.123	"CongMix"	0.456	1
443.8773	2.611	"CongMix"	0.411	1
446.4933	2.086	"CongMix"	0.403	1
448.5933	2.19	"IncongMix"	0.623	1
450.7933	2.199	"CongMix"	0.366	1
453.0093	1.995	"IncongMix"	0.462	1
455.0093	2.369	"IncongMix"	0.686	1
457.3923	2.311	"CongMix"	0.511	1
459.7083	2.579	"IncongMix"	0.579	1
462.2913	2.244	"CongMix"	0.644	1
464.5413	2.643	"CongMix"	0.394	1
467.1903	2.526	"CongMix"	0.577	1
469.7233	2.568	"CongMix"	0.452	1
472.3063	2.252	"IncongMix"	0.452	1
474.5733	2.248	"CongMix"	0.465	1
476.8233	2.894	"IncongMix"	0.511	1
479.7223	2.01	"CongMix"	0.46	1
481.7393	2.905	"IncongMix"	0.539	1
484.6553	2.317	"IncongMix"	0.383	0
486.9893	2.56	"CongMix"	0.561	1
489.5543	2.681	"CongMix"	0.348	1
492.2373	2.209	"IncongMix"	0.592	1
494.4543	2.213	"CongMix"	0.663	1
496.6703	1.906	"IncongMix"	0.607	1
498.5863	2.518	"IncongMix"	0.435	1
501.1193	2.722	"IncongMix"	0.606	1
503.8523	1.92	"IncongMix"	0.553	1
505.7863	2.384	"CongMix"	0.451	1
508.1853	2.1	"IncongMix"	0.7	1
510.3023	2.092	"CongMix"	0.543	1
512.4013	2.015	"IncongMix"	0.532	1
514.4183	2.882	"CongMix"	0.466	1
517.3173	2.246	"IncongMix"	0.463	1
519.5673	2.066	"IncongMix"	0.533	1
521.6503	2.749	"IncongMix"	0.45	1
524.4163	1.955	"CongMix"	0.388	1
526.3833	2.237	"IncongMix"	0.453	1
528.6333	2.62	"CongMix"	0.387	1
531.2663	2.1	"IncongMix"	0.45	1
533.3823	2.856	"CongMix"	0.39	1
536.2483	2.803	"CongMix"	0.403	1
539.0653	2.437	"CongMix"	0.354	1
541.5143	2.103	"IncongMix"	0.417	1
554.6793	2.405	"Control1"	0.388	1
557.0963	2.423	"Control1"	0.323	1
559.5293	2.41	"Control1"	0.377	1
561.9453	2.42	"Control1"	0.337	1
564.3783	2.419	"Control1"	0.336	1
566.8113	2.408	"Control1"	0.375	1
569.2273	2.41	"Control1"	0.343	1
571.6443	2.425	"Control1"	0.342	1
574.0773	2.405	"Control1"	0.389	1
576.4933	2.425	"Control1"	0.309	1
578.9263	2.409	"Control1"	0.275	1
581.3433	2.416	"Control1"	0.282	1
583.7763	2.413	"Control1"	0.313	1
586.1923	2.413	"Control1"	0.297	1
588.6083	2.415	"Control1"	0.465	1
591.0253	2.418	"Control1"	0.368	1
593.4583	2.415	"Control1"	0.415	1
595.8743	2.41	"Control1"	0.311	1
598.2903	2.426	"Control1"	0.327	1
600.7233	2.408	"Control1"	0.325	1
603.1403	2.415	"Control1"	0.332	1
605.5733	2.414	"Control1"	0.331	1
607.9893	2.421	"Control1"	0.355	1
610.4223	2.42	"Control1"	0.37	1
612.8553	2.413	"Control1"	0.297	1
615.2713	2.404	"Control1"	0.337	1
617.6883	2.428	"Control1"	0.328	1
620.1213	2.404	"Control1"	0.471	1
622.5373	2.418	"Control1"	0.302	1
624.9703	2.415	"Control1"	0.349	1
627.3873	2.415	"Control1"	0.532	1
629.8203	2.415	"Control1"	0.315	1
632.2533	2.425	"Control1"	0.258	1
634.6863	2.406	"Control1"	0.273	1
637.1023	2.412	"Control1"	0.313	1
639.5183	2.427	"Control1"	0.361	1
641.9513	2.414	"Control1"	0.464	1
644.3683	2.408	"Control1"	0.358	1
646.7843	2.409	"Control1"	0.31	1
649.2003	2.428	"Control1"	0.478	1
651.6343	2.405	"Control1"	0.388	1
654.0503	2.414	"Control1"	0.348	1
656.4663	2.424	"Control1"	0.324	1
658.8993	2.412	"Control1"	0.379	1
661.3163	2.42	"Control1"	0.37	1
663.7493	2.411	"Control1"	0.345	1
666.1653	2.411	"Control1"	0.312	1
668.5813	2.419	"Control1"	0.336	1
671.0143	2.412	"Control1"	0.295	1
673.4313	2.418	"Control1"	0.318	1
675.8643	2.414	"Control1"	0.365	1
678.2803	2.416	"Control1"	0.333	1
680.7133	2.406	"Control1"	0.54	1
683.1293	2.424	"Control1"	0.308	1
685.5623	2.406	"Control1"	0.323	1
687.9793	2.431	"Control1"	0.281	1
690.4123	2.41	"Control1"	0.36	1
692.8283	2.405	"Control1"	0.288	1
695.2453	2.416	"Control1"	0.399	1
697.6783	2.414	"Control1"	0.398	1
700.0943	2.414	"Control1"	0.398	1
702.5103	2.421	"Control1"	0.422	1
704.9433	2.416	"Control1"	0.333	1
707.3763	2.425	"Control1"	0.492	1
709.8093	2.405	"Control1"	0.322	1
712.2263	2.423	"Control1"	0.273	1
714.6593	2.412	"Control1"	0.312	1
717.0753	2.404	"Control1"	0.288	1
719.4913	2.428	"Control1"	0.312	1
721.9243	2.404	"Control1"	0.287	1
724.3413	2.427	"Control1"	0.31	1
726.7743	1.866	"Control1"	0.349	1
739.7563	1.913	"IncongMix"	0.63	1
741.6723	2.854	"CongMix"	0.338	1
744.5383	2.232	"IncongMix"	0.416	1
746.7883	2.732	"IncongMix"	0.582	1
749.5213	2.227	"CongMix"	0.361	1
751.7543	2.294	"CongMix"	0.344	1
754.0543	2.147	"CongMix"	0.331	1
756.2033	2.615	"CongMix"	0.382	1
758.8203	2.449	"CongMix"	0.333	1
761.2863	2.691	"IncongMix"	0.491	1
763.9863	2.354	"IncongMix"	0.671	1
766.3523	2.259	"CongMix"	0.425	1
768.6193	2.823	"CongMix"	0.39	1
771.4513	2.213	"CongMix"	0.43	1
773.6683	2.551	"CongMix"	0.485	1
776.2343	2.17	"CongMix"	0.47	1
778.4173	2.652	"CongMix"	0.535	1
781.0843	2.371	"CongMix"	0.388	1
783.4673	2.789	"CongMix"	0.373	1
786.2663	2.442	"CongMix"	0.326	1
788.7163	2.862	"CongMix"	0.396	1
791.5823	2.671	"CongMix"	0.338	1
794.2653	2.556	"CongMix"	0.439	1
796.8323	2.307	"IncongMix"	0.607	1
799.1483	2.118	"IncongMix"	0.435	1
801.2813	2.444	"IncongMix"	0.494	1
803.7313	2.214	"IncongMix"	0.364	0
805.9473	1.938	"CongMix"	0.588	1
807.8973	2.716	"CongMix"	0.566	1
810.6303	2.251	"IncongMix"	0.585	1
812.8963	2.392	"CongMix"	0.375	1
815.2963	2.807	"CongMix"	0.391	1
818.1123	2.622	"CongMix"	0.406	1
820.7453	2.734	"IncongMix"	0.717	1
823.4953	2.029	"CongMix"	0.479	1
825.5283	2.083	"CongMix"	0.566	1
827.6283	1.922	"IncongMix"	0.522	1
829.5613	2.528	"CongMix"	0.461	1
832.0943	2.864	"IncongMix"	0.464	1
834.9603	2.905	"IncongMix"	0.622	1
837.8763	2.184	"IncongMix"	0.434	1
840.0763	2.308	"IncongMix"	0.625	1
842.3923	2.391	"CongMix"	0.541	1
844.7923	2.51	"IncongMix"	0.461	1
847.3083	2.737	"IncongMix"	0.521	1
850.0583	2.452	"CongMix"	0.419	1
852.5243	2.006	"IncongMix"	0.489	1
854.5413	1.953	"CongMix"	0.52	1
856.5073	2.143	"CongMix"	0.61	1
858.6573	2.118	"IncongMix"	0.652	1
860.7903	2.893	"IncongMix"	0.526	1
863.6903	2.878	"IncongMix"	0.578	1
866.5733	2.322	"CongMix"	0.455	1
868.9063	2.09	"CongMix"	0.474	1
871.0053	2.802	"IncongMix"	0.519	1
873.8223	2.363	"IncongMix"	0.43	1
876.1883	2.002	"IncongMix"	0.336	1
878.2043	2.076	"IncongMix"	0.392	0
880.2883	2.246	"IncongMix"	0.396	1
882.5373	2.171	"IncongMix"	0.538	1
884.7203	2.598	"IncongMix"	0.515	1
887.3203	1.998	"IncongMix"	0.499	1
889.3203	2.507	"IncongMix"	0.507	1
891.8363	2.892	"CongMix"	0.575	1
894.7363	2.117	"CongMix"	0.667	1
896.8693	2.565	"IncongMix"	0.582	1
899.4523	2.746	"IncongMix"	0.463	1
902.2013	2.634	"CongMix"	0.418	1
904.8513	2.098	"IncongMix"	0.599	1
906.9673	2.193	"CongMix"	0.443	1
909.1673	1.938	"IncongMix"	0.555	1
911.1173	2.469	"IncongMix"	0.477	1
924.5493	2.404	"Neutral1"	0.421	1
926.9653	2.412	"Neutral1"	0.412	1
929.3813	2.416	"Neutral1"	0.3	1
931.8143	2.418	"Neutral1"	0.435	1
934.2473	2.416	"Neutral1"	0.45	1
936.6803	2.412	"Neutral1"	0.529	1
939.0973	2.415	"Neutral1"	0.432	1
941.5303	2.42	"Neutral1"	0.487	1
943.9633	2.413	"Neutral1"	0.43	1
946.3793	2.424	"Neutral1"	0.374	1
948.8123	2.411	"Neutral1"	0.412	1
951.2283	2.42	"Neutral1"	0.404	1
953.6613	2.409	"Neutral1"	0.459	1
956.0783	2.421	"Neutral1"	0.354	1
958.5113	2.41	"Neutral1"	0.377	1
960.9273	2.412	"Neutral1"	0.545	1
963.3443	2.422	"Neutral1"	0.488	1
965.7773	2.416	"Neutral1"	0.383	1
968.2103	2.405	"Neutral1"	0.422	1
970.6263	2.429	"Neutral1"	0.413	1
973.0593	2.403	"Neutral1"	0.42	1
975.4753	2.421	"Neutral1"	0.388	1
977.9083	2.421	"Neutral1"	0.355	1
980.3413	2.415	"Neutral1"	0.498	1
982.7583	2.399	"Neutral1"	0.433	1
985.1743	2.429	"Neutral1"	0.313	1
987.6073	2.414	"Neutral1"	0.448	1
990.0233	2.408	"Neutral1"	0.575	1
992.4403	2.422	"Neutral1"	0.422	1
994.8733	2.413	"Neutral1"	0.413	1
997.2893	2.415	"Neutral1"	0.749	1
999.7063	2.41	"Neutral1"	0.444	1
1002.1223	2.415	"Neutral1"	0.532	1
1004.5383	2.423	"Neutral1"	0.54	1
1006.9713	2.416	"Neutral1"	0.499	1
1009.3883	2.402	"Neutral1"	0.386	1
1011.8043	2.425	"Neutral1"	0.442	1
1014.2373	2.418	"Neutral1"	0.352	1
1016.6703	2.412	"Neutral1"	0.463	1
1019.0863	2.406	"Neutral1"	0.423	1
1021.5033	2.419	"Neutral1"	0.502	1
1023.9363	2.413	"Neutral1"	0.397	1
1026.3523	2.412	"Neutral1"	0.445	1
1028.7693	2.415	"Neutral1"	0.348	1
1031.1853	2.414	"Neutral1"	0.548	1
1033.6013	2.428	"Neutral1"	0.412	1
1036.0343	2.403	"Neutral1"	0.386	1
1038.4513	2.418	"Neutral1"	0.401	1
1040.8843	2.425	"Neutral1"	0.408	1
1043.3173	2.407	"Neutral1"	0.407	1
1045.7333	2.424	"Neutral1"	0.391	0
1048.1663	2.4	"Neutral1"	0.534	1
1050.5823	2.426	"Neutral1"	0.51	1
1053.0153	2.42	"Neutral1"	0.437	1
1055.4483	2.404	"Neutral1"	0.387	1
1057.8653	2.426	"Neutral1"	0.426	1
1060.2983	2.401	"Neutral1"	0.401	1
1062.7143	2.417	"Neutral1"	0.417	1
1065.1473	2.415	"Neutral1"	0.448	1
1067.5643	2.412	"Neutral1"	0.679	1
1069.9803	2.418	"Neutral1"	0.535	1
1072.4133	2.414	"Neutral1"	0.398	1
1074.8293	2.419	"Neutral1"	0.47	1
1077.2623	2.419	"Neutral1"	0.453	1
1079.6953	2.418	"Neutral1"	0.419	1
1082.1283	2.407	"Neutral1"	0.474	1
1084.5453	2.423	"Neutral1"	0.473	1
1086.9783	2.402	"Neutral1"	0.736	1
1089.3943	2.415	"Neutral1"	0.632	1
1091.8103	2.425	"Neutral1"	0.376	1
1094.2433	2.417	"Neutral1"	0.551	1
1096.6763	1.874	"Neutral1"	0.374	1
