onset	duration	trial_type	response_time	accuracy
3e-04	2.427	Control1	0.443	1
2.4353	2.412	Control1	0.344	1
4.8543	2.408	Control1	0.324	1
7.2723	2.422	Control1	0.37	1
9.7083	2.418	Control1	0.35	1
12.1433	2.409	Control1	0.491	1
14.5613	2.42	Control1	0.385	1
16.9973	2.411	Control1	0.293	1
19.4153	2.426	Control1	0.475	1
21.8503	2.409	Control1	0.424	1
24.2693	2.409	Control1	0.341	1
26.6873	2.432	Control1	0.314	1
29.1223	2.413	Control1	0.311	1
31.5413	2.407	Control1	0.372	1
33.9603	2.425	Control1	0.473	1
36.3953	2.411	Control1	0.31	1
38.8133	2.419	Control1	0.284	1
41.2483	2.415	Control1	0.313	1
43.6673	2.419	Control1	0.334	1
46.1023	2.406	Control1	0.354	1
48.5213	2.419	Control1	0.351	1
50.9563	2.418	Control1	0.3	1
53.3913	2.421	Control1	0.353	1
55.8263	2.405	Control1	0.286	1
58.2453	2.422	Control1	0.387	1
60.6803	2.419	Control1	0.384	1
63.1153	2.41	Control1	0.325	1
65.5343	2.424	Control1	0.289	1
67.9693	2.411	Control1	0.31	1
70.3873	2.414	Control1	0.412	1
72.8063	2.413	Control1	0.345	1
75.2243	2.422	Control1	0.287	1
77.6603	2.407	Control1	0.339	1
80.0783	2.421	Control1	0.353	1
82.5133	2.408	Control1	0.39	1
84.9323	2.413	Control1	0.395	1
87.3503	2.428	Control1	0.376	1
89.7863	2.408	Control1	0.356	1
92.2043	2.415	Control1	0.33	1
94.6233	2.422	Control1	0.303	1
97.0583	2.419	Control1	0.284	1
99.4933	2.405	Control1	0.321	1
101.9113	2.419	Control1	0.367	1
104.3473	2.42	Control1	0.251	1
106.7823	2.413	Control1	0.295	1
109.2003	2.408	Control1	0.373	1
111.6193	2.43	Control1	0.378	1
114.0543	2.414	Control1	0.295	1
116.4733	2.419	Control1	0.3	1
118.9083	2.407	Control1	0.289	1
121.3263	2.414	Control1	0.279	1
123.7453	2.426	Control1	0.308	1
126.1803	2.414	Control1	0.28	1
128.5983	2.404	Control1	0.302	1
131.0173	2.418	Control1	0.267	1
133.4523	2.412	Control1	0.544	1
135.8713	2.419	Control1	0.317	1
138.3063	2.417	Control1	0.282	1
140.7243	2.418	Control1	0.4	1
143.1433	2.408	Control1	0.357	1
145.5613	2.42	Control1	0.435	1
147.9973	2.411	Control1	0.31	1
150.4153	2.427	Control1	0.292	1
152.8503	2.415	Control1	0.313	1
155.2693	2.412	Control1	0.294	1
157.6873	2.421	Control1	0.252	1
160.1233	2.407	Control1	0.472	1
162.5413	2.418	Control1	0.366	1
164.9603	2.414	Control1	0.363	1
167.3783	2.415	Control1	0.28	1
169.7973	2.416	Control1	0.381	1
172.2153	1.832	Control1	0.331	1
185.1583	2.45	CongMix	0.532	1
187.6103	2.217	CongMix	0.383	1
189.8453	1.911	IncongMix	0.444	1
191.7633	2.589	IncongMix	0.438	1
194.3653	1.937	IncongMix	0.436	1
196.3173	2.705	IncongMix	0.42	1
199.0363	2.124	CongMix	0.389	1
201.1713	2.726	IncongMix	0.358	0
203.9063	2.182	CongMix	0.431	1
206.0913	2.439	CongMix	0.638	1
208.5433	2.866	IncongMix	0.481	1
211.4123	1.956	CongMix	0.388	1
213.3803	2.625	CongMix	0.324	1
216.0153	2.211	CongMix	0.393	1
218.2343	2.616	CongMix	0.398	1
220.8523	2.207	IncongMix	0.372	0
223.0713	2.703	CongMix	0.585	1
225.7893	2.014	IncongMix	0.379	1
227.8083	2.389	CongMix	0.471	1
230.2093	2.431	CongMix	0.462	1
232.6453	2.133	IncongMix	0.498	1
234.7803	2.744	IncongMix	0.475	1
237.5323	1.916	IncongMix	0.531	1
239.4503	2.856	CongMix	0.421	1
242.3193	2.534	CongMix	0.416	1
244.8543	2.569	IncongMix	0.601	1
247.4393	2.247	IncongMix	0.512	1
249.6913	2.679	CongMix	0.411	1
252.3763	1.999	IncongMix	0.598	1
254.3783	2.075	IncongMix	0.54	1
256.4633	2.179	IncongMix	0.511	1
258.6483	2.091	IncongMix	0.59	1
260.7493	2.745	IncongMix	0.593	1
263.5023	2.356	IncongMix	0.488	1
265.8703	2.09	CongMix	0.488	1
267.9723	2.798	IncongMix	0.513	1
270.7743	1.966	CongMix	0.415	1
272.7423	2.888	IncongMix	0.503	1
275.6443	2.25	CongMix	0.465	1
277.8963	2.614	CongMix	0.445	1
280.5153	2.554	CongMix	0.386	1
283.0833	2.247	IncongMix	0.562	1
285.3353	2.808	CongMix	0.406	1
288.1543	2.092	CongMix	0.491	1
290.2553	2.742	IncongMix	0.557	1
293.0073	2.32	IncongMix	0.501	1
295.3433	2.646	CongMix	0.477	1
297.9953	2.304	IncongMix	0.553	1
300.3133	2.251	IncongMix	0.499	1
302.5653	2.172	IncongMix	0.687	1
304.7503	2.518	IncongMix	0.55	1
307.2853	2.884	CongMix	0.415	1
310.1713	2.8	CongMix	0.432	1
312.9893	2.11	IncongMix	0.558	1
315.1083	2.896	IncongMix	0.511	1
318.0103	2.864	IncongMix	0.545	1
320.8793	2.551	CongMix	0.5	1
323.4473	2.513	IncongMix	0.612	1
325.9663	2.165	CongMix	0.381	1
328.1343	2.807	CongMix	0.389	1
330.9533	2.016	IncongMix	0.465	1
332.9713	2.883	IncongMix	0.431	1
335.8573	2.372	IncongMix	0.537	1
338.2423	2.317	CongMix	0.416	1
340.5773	2.859	CongMix	0.457	1
343.4463	2.39	CongMix	0.372	1
345.8483	2.014	CongMix	0.546	1
347.8663	2.374	CongMix	0.456	1
350.2513	2.292	CongMix	0.374	1
352.5533	2.12	CongMix	0.352	1
354.6883	2.266	CongMix	0.465	1
356.9563	2.042	IncongMix	0.509	1
369.9163	2.423	Neutral1	0.572	1
372.3513	2.419	Neutral1	0.417	1
374.7873	2.419	Neutral1	0.501	1
377.2223	2.404	Neutral1	0.386	1
379.6403	2.426	Neutral1	0.408	1
382.0753	2.408	Neutral1	0.373	1
384.4943	2.416	Neutral1	0.314	1
386.9133	2.425	Neutral1	0.607	1
389.3483	2.404	Neutral1	0.436	1
391.7663	2.417	Neutral1	0.465	1
394.1853	2.417	Neutral1	0.582	1
396.6203	2.418	Neutral1	0.467	1
399.0553	2.421	Neutral1	0.52	1
401.4903	2.407	Neutral1	0.405	1
403.9093	2.427	Neutral1	0.426	1
406.3443	2.414	Neutral1	0.479	1
408.7633	2.405	Neutral1	0.404	1
411.1813	2.416	Neutral1	0.497	1
413.6003	2.417	Neutral1	0.382	1
416.0183	2.424	Neutral1	0.356	1
418.4533	2.417	Neutral1	0.433	1
420.8883	2.403	Neutral1	0.502	1
423.3073	2.429	Neutral1	0.411	1
425.7423	2.413	Neutral1	0.528	1
428.1613	2.416	Neutral1	0.365	1
430.5793	2.407	Neutral1	0.322	1
432.9983	2.426	Neutral1	0.391	1
435.4333	2.402	Neutral1	0.468	1
437.8513	2.43	Neutral1	0.562	1
440.2873	2.407	Neutral1	0.422	1
442.7053	2.413	Neutral1	0.444	1
445.1243	2.425	Neutral1	0.457	1
447.5593	2.411	Neutral1	0.51	1
449.9773	2.421	Neutral1	0.436	1
452.4133	2.413	Neutral1	0.495	1
454.8313	2.407	Neutral1	0.405	1
457.2503	2.418	Neutral1	0.45	1
459.6853	2.425	Neutral1	0.407	1
462.1203	2.415	Neutral1	0.396	1
464.5393	2.414	Neutral1	0.513	1
466.9573	2.41	Neutral1	0.391	1
469.3763	2.423	Neutral1	0.388	1
471.8113	2.405	Neutral1	0.304	1
474.2293	2.426	Neutral1	0.358	1
476.6643	2.406	Neutral1	0.371	1
479.0833	2.427	Neutral1	0.376	1
481.5183	2.416	Neutral1	0.381	1
483.9373	2.41	Neutral1	0.442	1
486.3553	2.418	Neutral1	0.416	1
488.7743	2.415	Neutral1	0.397	1
491.1923	2.406	Neutral1	0.554	1
493.6113	2.415	Neutral1	0.631	1
496.0293	2.421	Neutral1	0.453	1
498.4643	2.422	Neutral1	0.37	1
500.9003	2.409	Neutral1	0.358	1
503.3183	2.413	Neutral1	0.428	1
505.7373	2.426	Neutral1	0.441	1
508.1723	2.41	Neutral1	0.526	1
510.5903	2.414	Neutral1	0.412	1
513.0093	2.41	Neutral1	0.392	1
515.4273	2.427	Neutral1	0.342	1
517.8633	2.412	Neutral1	0.394	1
520.2813	2.418	Neutral1	0.416	1
522.7003	2.419	Neutral1	0.517	1
525.1353	2.405	Neutral1	0.37	1
527.5533	2.423	Neutral1	0.304	1
529.9893	2.405	Neutral1	0.42	1
532.4073	2.428	Neutral1	0.393	1
534.8423	2.403	Neutral1	0.318	1
537.2613	2.416	Neutral1	0.331	1
539.6793	2.429	Neutral1	0.345	1
542.1143	1.907	Neutral1	0.406	1
555.0413	1.956	CongMix	0.438	1
557.0093	2.115	IncongMix	0.414	1
559.1273	2.162	CongMix	0.36	1
561.2963	2.636	CongMix	0.367	1
563.9483	2.082	CongMix	0.347	1
566.0333	2.355	IncongMix	0.454	1
568.4013	2.817	CongMix	0.382	1
571.2203	2.023	CongMix	0.555	1
573.2553	2.753	IncongMix	0.351	0
576.0243	2.319	IncongMix	0.334	0
578.3593	1.905	IncongMix	0.487	1
580.2773	2.01	IncongMix	0.609	1
582.2953	2.616	CongMix	0.431	1
584.9143	2.187	CongMix	0.452	1
587.1163	2.547	CongMix	0.346	1
589.6673	2.148	CongMix	0.363	1
591.8193	2.856	CongMix	0.371	1
594.6883	2.547	CongMix	0.445	1
597.2403	2.138	IncongMix	0.453	1
599.3923	2.438	CongMix	0.437	1
601.8433	2.118	CongMix	0.45	1
603.9783	2.622	CongMix	0.403	1
606.6143	2.752	IncongMix	0.583	1
609.3833	2.732	IncongMix	0.414	1
612.1183	2.899	CongMix	0.431	1
615.0203	2.444	CongMix	0.392	1
617.4723	2.714	IncongMix	0.412	1
620.1913	2.809	CongMix	0.357	1
623.0103	2.505	IncongMix	0.354	1
625.5283	2.508	IncongMix	0.556	1
628.0473	2.081	CongMix	0.429	1
630.1323	2.224	IncongMix	0.456	1
632.3673	2.579	IncongMix	0.461	1
634.9523	2.711	CongMix	0.459	1
637.6713	1.916	IncongMix	0.532	1
639.5893	2.681	CongMix	0.43	1
642.2743	2.799	IncongMix	0.481	1
645.0763	2.869	IncongMix	0.367	1
647.9623	1.951	IncongMix	0.433	1
649.9303	2.898	IncongMix	0.497	1
652.8323	2.862	IncongMix	0.427	1
655.7013	2.361	IncongMix	0.493	1
658.0703	2.061	IncongMix	0.46	1
660.1383	2.254	IncongMix	0.52	1
662.4063	2.098	IncongMix	0.58	1
664.5083	2.448	IncongMix	0.446	1
666.9603	1.995	IncongMix	0.394	1
668.9613	2.336	CongMix	0.401	1
671.3133	2.564	IncongMix	0.529	1
673.8823	2.282	CongMix	0.447	1
676.1673	2.89	IncongMix	0.538	1
679.0693	2.192	IncongMix	0.524	1
681.2713	2.721	IncongMix	0.586	1
684.0063	2.244	IncongMix	0.459	1
686.2583	2.543	CongMix	0.375	1
688.8103	2.793	CongMix	0.391	1
691.6123	2.847	CongMix	0.429	1
694.4643	2.253	IncongMix	0.768	1
696.7333	1.95	CongMix	0.499	1
698.7013	2.204	CongMix	0.403	1
700.9193	2.444	CongMix	0.409	1
703.3713	2.382	CongMix	0.381	1
705.7563	2.388	CongMix	0.436	1
708.1583	2.306	IncongMix	0.522	1
710.4763	2.889	IncongMix	0.42	1
713.3793	2.256	CongMix	0.405	1
715.6473	2.172	IncongMix	0.704	1
717.8323	2.218	CongMix	0.367	1
720.0673	2.367	CongMix	0.348	1
722.4363	2.614	CongMix	0.363	1
725.0543	2.257	CongMix	0.705	1
727.3233	1.697	IncongMix	0.612	1
739.8493	2.43	Congruent1	0.445	1
742.2843	2.413	Congruent1	0.378	1
744.7033	2.407	Congruent1	0.439	1
747.1213	2.426	Congruent1	0.325	1
749.5563	2.404	Congruent1	0.386	1
751.9753	2.417	Congruent1	0.399	1
754.3933	2.417	Congruent1	0.349	1
756.8123	2.412	Congruent1	0.377	1
759.2303	2.419	Congruent1	0.367	1
761.6663	2.429	Congruent1	0.411	1
764.1013	2.405	Congruent1	0.32	1
766.5193	2.418	Congruent1	0.366	1
768.9383	2.424	Congruent1	0.339	1
771.3733	2.403	Congruent1	0.352	1
773.7913	2.425	Congruent1	0.39	1
776.2273	2.405	Congruent1	0.337	1
778.6453	2.423	Congruent1	0.439	1
781.0803	2.41	Congruent1	0.492	1
783.4993	2.426	Congruent1	0.425	1
785.9343	2.407	Congruent1	0.438	1
788.3533	2.413	Congruent1	0.395	1
790.7713	2.425	Congruent1	0.457	1
793.2063	2.41	Congruent1	0.358	1
795.6253	2.421	Congruent1	0.403	1
798.0603	2.404	Congruent1	0.319	1
800.4793	2.43	Congruent1	0.428	1
802.9143	2.401	Congruent1	0.433	1
805.3323	2.427	Congruent1	0.343	1
807.7673	2.408	Congruent1	0.34	1
810.1863	2.411	Congruent1	0.377	1
812.6043	2.416	Congruent1	0.431	1
815.0233	2.415	Congruent1	0.38	1
817.4423	2.422	Congruent1	0.32	1
819.8773	2.408	Congruent1	0.357	1
822.2953	2.427	Congruent1	0.443	1
824.7303	2.41	Congruent1	0.392	1
827.1493	2.406	Congruent1	0.405	1
829.5673	2.417	Congruent1	0.315	1
831.9863	2.419	Congruent1	0.368	1
834.4213	2.417	Congruent1	0.365	1
836.8403	2.422	Congruent1	0.337	1
839.2753	2.418	Congruent1	0.35	1
841.7103	2.406	Congruent1	0.371	1
844.1293	2.42	Congruent1	0.352	1
846.5643	2.41	Congruent1	0.325	1
848.9823	2.423	Congruent1	0.355	1
851.4173	2.421	Congruent1	0.352	1
853.8533	2.409	Congruent1	0.324	1
856.2713	2.419	Congruent1	0.418	1
858.7063	2.406	Congruent1	0.454	1
861.1253	2.413	Congruent1	0.395	1
863.5433	2.424	Congruent1	0.505	1
865.9793	2.408	Congruent1	0.357	1
868.3973	2.422	Congruent1	0.387	1
870.8323	2.418	Congruent1	0.416	1
873.2513	2.414	Congruent1	0.413	1
875.6693	2.421	Congruent1	0.419	1
878.1053	2.417	Congruent1	0.382	1
880.5403	2.414	Congruent1	0.363	1
882.9583	2.405	Congruent1	0.353	1
885.3773	2.418	Congruent1	0.366	1
887.8123	2.414	Congruent1	0.563	1
890.2303	2.417	Congruent1	0.449	1
892.6493	2.427	Congruent1	0.326	1
895.0843	2.414	Congruent1	0.395	1
897.5033	2.404	Congruent1	0.303	1
899.9213	2.426	Congruent1	0.341	1
902.3563	2.414	Congruent1	0.346	1
904.7753	2.409	Congruent1	0.375	1
907.1933	2.424	Congruent1	0.405	1
909.6293	2.417	Congruent1	0.449	1
912.0643	1.939	Congruent1	0.438	1
924.9903	2.377	CongMix	0.375	1
927.3763	2.897	IncongMix	0.445	0
930.2783	2.187	IncongMix	0.503	1
932.4793	2.869	IncongMix	0.534	1
935.3653	2.177	CongMix	0.392	1
937.5503	2.254	IncongMix	0.503	1
939.8183	2.874	IncongMix	0.522	1
942.7043	1.912	IncongMix	0.444	1
944.6223	2.623	CongMix	0.422	1
947.2573	2.623	CongMix	0.371	1
949.8933	2.851	CongMix	0.399	1
952.7623	2.738	IncongMix	0.386	1
955.5143	1.929	IncongMix	0.562	1
957.4483	2.444	CongMix	0.46	1
959.9003	1.944	IncongMix	0.359	1
961.8523	2.385	CongMix	0.383	1
964.2543	2.355	IncongMix	0.437	1
966.6223	2.59	IncongMix	0.405	1
969.2243	2.813	CongMix	0.411	1
972.0433	2.286	CongMix	0.368	1
974.3453	2.33	IncongMix	0.362	0
976.6803	1.945	CongMix	0.411	1
978.6313	2.139	CongMix	0.388	1
980.7833	2.519	IncongMix	0.451	1
983.3183	2.262	CongMix	0.46	1
985.5873	2.783	IncongMix	0.631	1
988.3723	2.567	CongMix	0.366	1
990.9573	2.029	CongMix	0.461	1
992.9923	2.499	IncongMix	0.698	1
995.4943	2.321	CongMix	0.42	1
997.8293	1.94	CongMix	0.405	1
999.7813	2.714	IncongMix	0.428	1
1002.5003	2.121	CongMix	0.453	1
1004.6353	2.549	CongMix	0.398	1
1007.1863	2.299	IncongMix	0.615	1
1009.4883	2.752	IncongMix	0.801	1
1012.2573	2.45	CongMix	0.432	1
1014.7093	2.018	IncongMix	0.5	1
1016.7443	2.23	IncongMix	0.529	1
1018.9793	2.683	CongMix	0.398	1
1021.6643	2.07	IncongMix	0.552	1
1023.7493	2.123	IncongMix	0.555	1
1025.8843	2.011	IncongMix	0.644	1
1027.9023	2.122	IncongMix	0.554	1
1030.0373	2.703	CongMix	0.451	1
1032.7563	2.006	IncongMix	0.572	1
1034.7743	2.194	CongMix	0.426	1
1036.9763	2.158	CongMix	0.44	1
1039.1443	2.222	IncongMix	0.504	0
1041.3793	2.436	CongMix	0.468	1
1043.8313	2.889	CongMix	0.504	1
1046.7333	2.642	CongMix	0.474	1
1049.3853	2.233	IncongMix	0.582	1
1051.6203	2.533	CongMix	0.531	1
1054.1563	2.091	CongMix	0.523	1
1056.2573	2.244	CongMix	0.526	1
1058.5093	2.625	CongMix	0.49	1
1061.1443	2.899	IncongMix	0.43	1
1064.0473	2.727	IncongMix	0.575	1
1066.7823	2.81	CongMix	0.408	1
1069.6013	2.086	CongMix	0.485	1
1071.7023	2.562	IncongMix	0.544	1
1074.2713	2.391	CongMix	0.423	1
1076.6733	2.807	CongMix	0.405	1
1079.4923	2.451	IncongMix	0.466	1
1081.9443	2.856	CongMix	0.405	1
1084.8123	2.892	IncongMix	0.473	1
1087.7153	2.087	IncongMix	0.586	1
1089.8163	2.719	IncongMix	0.517	1
1092.5523	2.358	IncongMix	0.573	1
1094.9203	2.222	CongMix	0.421	1
1097.1553	1.826	IncongMix	0.562	1
