onset	duration	trial_type	response_time	accuracy
3e-04	2.19	IncongMix	0.739	1
2.2023	2.223	CongMix	0.505	1
4.4373	2.082	CongMix	0.414	1
6.5223	2.152	CongMix	0.401	1
8.6903	2.713	IncongMix	0.361	0
11.4093	2.062	IncongMix	0.594	1
13.4773	2.889	IncongMix	0.854	1
16.3793	2.18	CongMix	0.496	1
18.5643	2.882	CongMix	0.447	1
21.4503	2.867	CongMix	0.465	1
24.3193	2.552	CongMix	0.467	1
26.8873	2.25	IncongMix	0.499	1
29.1393	2.103	CongMix	0.519	1
31.2573	2.12	IncongMix	0.553	1
33.3923	2.583	IncongMix	0.514	1
35.9783	2.257	CongMix	0.456	1
38.2463	1.999	IncongMix	0.764	1
40.2483	2.398	CongMix	0.53	1
42.6493	1.947	IncongMix	0.529	1
44.6013	2.245	IncongMix	0.577	1
46.8533	2.361	IncongMix	0.66	1
49.2213	2.087	IncongMix	0.636	1
51.3233	2.824	CongMix	0.422	1
54.1583	2.368	CongMix	0.467	1
56.5433	2.604	CongMix	0.386	1
59.1623	2.121	IncongMix	0.503	1
61.2973	2.611	CongMix	0.392	1
63.9163	2.64	CongMix	0.421	1
66.5683	2.738	IncongMix	0.553	1
69.3203	2.452	CongMix	0.417	1
71.7893	2.443	CongMix	0.459	1
74.2403	2.528	CongMix	0.576	1
76.7763	2.685	CongMix	0.416	1
79.4783	2.842	CongMix	0.49	1
82.3303	2.249	CongMix	0.414	1
84.5823	2.511	IncongMix	0.626	1
87.1003	2.121	CongMix	0.62	1
89.2353	2.567	IncongMix	0.565	1
91.8043	2.561	CongMix	0.492	1
94.3733	2.27	CongMix	0.618	1
96.6583	2.878	IncongMix	0.493	1
99.5433	1.949	CongMix	0.464	1
101.4953	1.913	IncongMix	0.528	1
103.4133	1.922	IncongMix	0.554	1
105.3483	2.793	IncongMix	0.491	1
108.1503	2.18	IncongMix	0.545	1
110.3353	2.905	IncongMix	0.536	1
113.2543	2.732	IncongMix	0.497	1
115.9893	2.369	IncongMix	0.434	1
118.3743	2.443	CongMix	0.392	1
120.8263	2.322	CongMix	0.404	1
123.1613	2.205	IncongMix	0.653	1
125.3803	2.797	CongMix	0.562	1
128.1823	2.326	IncongMix	0.424	1
130.5173	2.874	IncongMix	0.505	1
133.4033	1.946	CongMix	0.395	1
135.3543	2.446	IncongMix	0.428	1
137.8063	2.709	CongMix	0.424	1
140.5253	2.297	IncongMix	0.696	1
142.8263	2.746	IncongMix	0.611	1
145.5793	2.007	IncongMix	0.522	1
147.5973	2.721	IncongMix	0.536	1
150.3323	2.636	CongMix	0.401	1
152.9843	2.239	IncongMix	0.421	1
155.2363	2.012	IncongMix	0.361	1
157.2543	2.511	IncongMix	0.543	1
159.7733	2.025	CongMix	0.44	1
161.8083	2.38	CongMix	0.445	1
164.1933	2.2	CongMix	0.331	1
166.3953	2.144	CongMix	0.409	1
168.5463	2.805	CongMix	0.37	1
171.3653	2.41	IncongMix	0.431	1
184.7753	2.431	Control1	0.413	1
187.2103	2.405	Control1	0.337	1
189.6293	2.419	Control1	0.334	1
192.0643	2.417	Control1	0.299	1
194.4993	2.412	Control1	0.36	1
196.9183	2.417	Control1	0.349	1
199.3533	2.416	Control1	0.314	1
201.7723	2.41	Control1	0.375	1
204.1903	2.42	Control1	0.269	1
206.6253	2.422	Control1	0.37	1
209.0613	2.416	Control1	0.398	1
211.4793	2.399	Control1	0.331	1
213.8813	2.43	Control1	0.329	1
216.3163	2.403	Control1	0.334	1
218.7353	2.414	Control1	0.363	1
221.1533	2.424	Control1	0.289	1
223.5883	2.412	Control1	0.294	1
226.0073	2.415	Control1	0.347	1
228.4253	2.422	Control1	0.537	1
230.8613	2.408	Control1	0.373	1
233.2793	2.413	Control1	0.378	1
235.6983	2.413	Control1	0.295	1
238.1163	2.417	Control1	0.349	1
240.5353	2.42	Control1	0.418	1
242.9703	2.407	Control1	0.423	1
245.3883	2.428	Control1	0.293	1
247.8243	2.413	Control1	0.345	1
250.2423	2.406	Control1	0.271	1
252.6613	2.415	Control1	0.38	1
255.0793	2.426	Control1	0.258	1
257.5143	2.415	Control1	0.23	0
259.9333	2.419	Control1	0.451	1
262.3683	2.414	Control1	0.312	1
264.7873	2.402	Control1	0.301	1
267.2053	2.417	Control1	0.499	1
269.6243	2.426	Control1	0.408	1
272.0593	2.409	Control1	0.357	1
274.4783	2.41	Control1	0.442	1
276.8963	2.428	Control1	0.36	1
279.3313	2.41	Control1	0.508	1
281.7503	2.408	Control1	0.473	1
284.1683	2.418	Control1	0.567	1
286.6033	2.408	Control1	0.54	1
289.0223	2.42	Control1	0.385	1
291.4573	2.427	Control1	0.342	1
293.8923	2.399	Control1	0.331	1
296.2943	2.427	Control1	0.393	1
298.7293	2.409	Control1	0.374	1
301.1483	2.42	Control1	0.419	1
303.5833	2.419	Control1	0.351	1
306.0183	2.415	Control1	0.38	1
308.4373	2.41	Control1	0.409	1
310.8553	2.42	Control1	0.351	1
313.2913	2.406	Control1	0.371	1
315.7093	2.428	Control1	0.393	1
318.1443	2.41	Control1	0.358	1
320.5633	2.421	Control1	0.403	1
322.9983	2.411	Control1	0.392	1
325.4173	2.406	Control1	0.405	1
327.8353	2.428	Control1	0.41	1
330.2703	2.417	Control1	0.415	1
332.6893	2.406	Control1	0.388	1
335.1073	2.414	Control1	0.362	1
337.5263	2.413	Control1	0.295	1
339.9443	2.419	Control1	0.317	1
342.3803	2.423	Control1	0.305	1
344.8153	2.406	Control1	0.438	1
347.2333	2.419	Control1	0.3	1
349.6693	2.413	Control1	0.295	1
352.0873	2.417	Control1	0.365	1
354.5063	2.421	Control1	0.386	1
356.9413	1.78	Control1	0.279	1
369.8673	1.941	IncongMix	0.657	1
371.8193	2.885	IncongMix	0.6	1
374.7213	2.854	CongMix	0.402	1
377.5903	2.209	IncongMix	0.341	0
379.8083	2.695	IncongMix	0.611	1
382.5103	2.751	IncongMix	0.549	1
385.2633	1.998	IncongMix	0.58	1
387.2643	2.18	CongMix	0.579	1
389.4493	2.097	CongMix	0.562	1
391.5513	1.901	IncongMix	0.5	1
393.4693	2.903	CongMix	0.718	1
396.3883	2.225	IncongMix	0.574	1
398.6233	2.506	IncongMix	0.555	1
401.1413	2.619	CongMix	0.517	1
403.7773	2.879	IncongMix	0.561	1
406.6623	2.564	IncongMix	0.612	1
409.2313	2.249	IncongMix	0.531	1
411.4833	2.558	CongMix	0.407	1
414.0513	2.365	IncongMix	0.447	1
416.4203	2.514	IncongMix	0.446	1
418.9383	2.135	CongMix	0.367	1
421.0903	2.451	CongMix	0.399	1
423.5593	2.062	IncongMix	0.394	0
425.6273	1.952	CongMix	0.334	1
427.5953	2.254	CongMix	0.486	1
429.8633	2.188	IncongMix	0.554	1
432.0653	2.807	CongMix	0.472	1
434.8843	2.191	IncongMix	0.589	1
437.0863	2.44	CongMix	0.571	1
439.5383	2.684	CongMix	0.399	1
442.2233	2.523	CongMix	0.505	1
444.7583	2.26	IncongMix	0.842	1
447.0273	2.386	CongMix	0.501	1
449.4293	2.602	CongMix	0.467	1
452.0473	2.124	CongMix	0.473	1
454.1823	2.124	IncongMix	0.506	1
456.3173	1.999	IncongMix	0.531	1
458.3193	2.805	IncongMix	0.569	1
461.1383	1.997	IncongMix	0.646	1
463.1393	2.304	IncongMix	0.485	1
465.4583	2.29	CongMix	0.422	1
467.7593	2.62	CongMix	0.568	1
470.3953	2.862	IncongMix	0.444	1
473.2633	2.707	CongMix	0.456	1
475.9823	2.081	CongMix	0.497	1
478.0673	2.758	IncongMix	0.556	1
480.8363	2.553	CongMix	0.451	1
483.4053	2.313	IncongMix	0.562	1
485.7233	2.25	CongMix	0.548	1
487.9753	2.354	IncongMix	0.52	1
490.3433	2.384	CongMix	0.583	1
492.7453	2.01	CongMix	0.493	1
494.7633	2.894	IncongMix	0.475	1
497.6663	2.134	IncongMix	0.516	1
499.8173	2.588	IncongMix	0.437	1
502.4193	2.799	CongMix	0.531	1
505.2213	2.091	IncongMix	0.673	1
507.3233	2.216	CongMix	0.515	1
509.5413	1.551	IncongMix	0	0
511.9933	2.388	CongMix	0.437	1
514.3953	2.715	IncongMix	0.53	1
517.1143	2.893	IncongMix	0.491	1
520.0163	2.215	CongMix	0.397	1
522.2343	2.739	IncongMix	0.587	1
524.9873	1.944	IncongMix	0.626	1
526.9383	1.951	CongMix	0.467	1
528.9063	2.855	CongMix	0.403	1
531.7753	2.815	CongMix	0.446	1
534.5943	2.637	CongMix	0.419	1
537.2463	2.432	CongMix	0.614	1
539.6813	2.169	CongMix	0.451	1
541.8663	1.849	CongMix	0.442	1
554.7093	2.417	Neutral1	0.599	1
557.1283	2.422	Neutral1	0.404	1
559.5633	2.421	Neutral1	0.336	0
561.9983	2.405	Neutral1	0.437	1
564.4173	2.418	Neutral1	0.45	1
566.8523	2.408	Neutral1	0.439	1
569.2713	2.415	Neutral1	0.38	1
571.6893	2.425	Neutral1	0.474	1
574.1243	2.417	Neutral1	0.599	1
576.5433	2.413	Neutral1	0.412	1
578.9613	2.412	Neutral1	0.41	1
581.3803	2.409	Neutral1	0.391	1
583.7983	2.422	Neutral1	0.604	1
586.2343	2.411	Neutral1	0.56	1
588.6523	2.415	Neutral1	0.446	1
591.0713	2.414	Neutral1	0.379	1
593.4893	2.417	Neutral1	0.449	1
595.9083	2.428	Neutral1	0.31	1
598.3433	2.411	Neutral1	0.427	1
600.7613	2.405	Neutral1	0.537	1
603.1803	2.417	Neutral1	0.366	1
605.5983	2.417	Neutral1	0.299	1
608.0173	2.412	Neutral1	0.36	1
610.4363	2.417	Neutral1	0.549	1
612.8713	2.419	Neutral1	0.434	1
615.3063	2.412	Neutral1	0.511	1
617.7243	2.423	Neutral1	0.421	1
620.1603	2.412	Neutral1	0.361	1
622.5783	2.42	Neutral1	0.335	1
625.0133	2.406	Neutral1	0.404	1
627.4323	2.423	Neutral1	0.305	1
629.8673	2.419	Neutral1	0.501	1
632.3023	2.417	Neutral1	0.482	1
634.7213	2.414	Neutral1	0.463	1
637.1393	2.416	Neutral1	0.381	1
639.5583	2.414	Neutral1	0.53	1
641.9763	2.417	Neutral1	0.432	1
644.3953	2.405	Neutral1	0.421	1
646.8133	2.425	Neutral1	0.507	1
649.2493	2.404	Neutral1	0.519	1
651.6673	2.421	Neutral1	0.42	1
654.1023	2.418	Neutral1	0.433	1
656.5383	2.412	Neutral1	0.477	1
658.9563	2.42	Neutral1	0.419	1
661.3913	2.407	Neutral1	0.472	1
663.8103	2.415	Neutral1	0.397	1
666.2283	2.422	Neutral1	0.403	1
668.6643	2.416	Neutral1	0.431	1
671.0823	2.417	Neutral1	0.565	1
673.5013	2.417	Neutral1	0.866	1
675.9193	2.415	Neutral1	0.447	1
678.3383	2.417	Neutral1	0.532	1
680.7733	2.402	Neutral1	0.401	1
683.1913	2.426	Neutral1	0.407	1
685.6273	2.414	Neutral1	0.579	1
688.0453	2.409	Neutral1	0.457	1
690.4643	2.422	Neutral1	0.454	1
692.8993	2.402	Neutral1	0.451	1
695.3173	2.429	Neutral1	0.377	1
697.7533	2.415	Neutral1	0.38	1
700.1713	2.411	Neutral1	0.426	1
702.5903	2.416	Neutral1	0.415	1
705.0083	2.408	Neutral1	0.373	1
707.4273	2.426	Neutral1	0.474	1
709.8623	2.408	Neutral1	0.407	1
712.2803	2.422	Neutral1	0.437	1
714.7163	2.402	Neutral1	0.401	1
717.1343	2.419	Neutral1	0.351	1
719.5693	2.422	Neutral1	0.42	1
722.0053	2.41	Neutral1	0.559	1
724.4233	2.423	Neutral1	0.405	1
726.8583	2.079	Neutral1	0.578	1
739.7853	2.903	IncongMix	0.451	1
742.7043	2.165	CongMix	0.364	1
744.8723	2.732	IncongMix	0.363	0
747.6083	1.944	CongMix	0.443	1
749.5593	2.865	CongMix	0.38	1
752.4283	2.163	CongMix	0.295	1
754.5963	2.811	CongMix	0.359	1
757.4153	2.842	CongMix	0.34	1
760.2673	2.802	IncongMix	0.384	1
763.0863	2.564	CongMix	0.445	1
765.6553	2.351	IncongMix	0.5	1
768.0233	2.211	IncongMix	0.643	1
770.2423	2.739	IncongMix	0.704	1
772.9943	2.033	CongMix	0.448	1
775.0293	2.625	CongMix	0.373	1
777.6643	2.615	CongMix	0.546	1
780.2833	2.092	CongMix	0.391	1
782.3843	2.61	CongMix	0.442	1
785.0033	2.254	IncongMix	0.503	1
787.2713	2.388	CongMix	0.403	1
789.6733	2.205	CongMix	0.353	1
791.8923	2.317	IncongMix	0.549	1
794.2273	2.707	IncongMix	0.438	1
796.9463	2.444	CongMix	0.359	1
799.3973	2.181	IncongMix	0.38	1
801.5823	2.897	IncongMix	0.411	0
804.4853	2.674	CongMix	0.372	1
807.1703	2.013	IncongMix	0.495	1
809.1883	2.816	CongMix	0.381	1
812.0073	2.553	CongMix	0.434	1
814.5763	2.26	CongMix	0.425	1
816.8443	1.913	IncongMix	0.612	1
818.7623	2.459	IncongMix	0.574	1
821.2313	2.728	IncongMix	0.577	1
823.9663	1.945	CongMix	0.394	1
825.9183	2.018	IncongMix	0.45	1
827.9533	2.131	CongMix	0.663	1
830.0883	2.325	CongMix	0.44	1
832.4233	2.304	IncongMix	0.369	0
834.7413	2.438	CongMix	0.603	1
837.1933	2.799	CongMix	0.447	1
839.9953	2.12	CongMix	0.452	1
842.1303	2.458	CongMix	0.573	1
844.5993	2.531	CongMix	0.496	1
847.1343	2.129	IncongMix	0.561	1
849.2693	2.089	IncongMix	0.754	1
851.3713	2.002	IncongMix	0.484	1
853.3893	2.506	IncongMix	0.522	1
855.9073	2.869	IncongMix	0.484	1
858.7933	2.183	IncongMix	0.582	1
860.9783	2.113	IncongMix	0.412	1
863.0963	2.245	IncongMix	0.494	1
865.3483	2.892	IncongMix	0.49	1
868.2503	2.709	CongMix	0.524	1
870.9693	1.927	IncongMix	0.693	1
872.9043	2.229	IncongMix	0.494	1
875.1393	2.889	CongMix	0.387	1
878.0413	2.283	CongMix	0.549	1
880.3263	2.575	IncongMix	0.64	1
882.9123	2.086	CongMix	0.502	1
885.0133	2.245	CongMix	0.36	1
887.2653	2.351	IncongMix	0.316	0
889.6333	2.637	CongMix	0.452	1
892.2853	2.751	IncongMix	0.632	1
895.0383	2.39	CongMix	0.439	1
897.4393	2.364	CongMix	0.446	1
899.8083	2.59	IncongMix	0.405	1
902.4103	1.949	IncongMix	0.515	1
904.3613	2.213	CongMix	0.428	1
906.5803	2.868	IncongMix	0.416	1
909.4653	2.5	IncongMix	0.499	1
911.9673	1.697	IncongMix	0.541	1
924.5603	2.424	Congruent1	0.556	1
926.9953	2.412	Congruent1	0.377	1
929.4143	2.422	Congruent1	0.454	1
931.8493	2.413	Congruent1	0.378	1
934.2683	2.419	Congruent1	0.351	1
936.7033	2.404	Congruent1	0.436	1
939.1213	2.421	Congruent1	0.386	1
941.5573	2.418	Congruent1	0.366	1
943.9923	2.42	Congruent1	0.435	1
946.4273	2.411	Congruent1	0.392	1
948.8463	2.418	Congruent1	0.333	1
951.2813	2.406	Congruent1	0.338	1
953.6993	2.417	Congruent1	0.399	1
956.1343	2.41	Congruent1	0.308	1
958.5533	2.427	Congruent1	0.409	1
960.9883	2.42	Congruent1	0.486	1
963.4233	2.413	Congruent1	0.395	1
965.8423	2.403	Congruent1	0.352	1
968.2603	2.427	Congruent1	0.342	1
970.6963	2.403	Congruent1	0.418	1
973.1143	2.428	Congruent1	0.36	1
975.5493	2.407	Congruent1	0.389	1
977.9683	2.418	Congruent1	0.417	1
980.4033	2.411	Congruent1	0.342	1
982.8223	2.423	Congruent1	0.371	1
985.2573	2.405	Congruent1	0.504	1
987.6753	2.425	Congruent1	0.39	1
990.1113	2.406	Congruent1	0.338	1
992.5293	2.418	Congruent1	0.4	1
994.9643	2.422	Congruent1	0.437	1
997.4003	2.413	Congruent1	0.345	1
999.8183	2.417	Congruent1	0.366	1
1002.2533	2.415	Congruent1	0.363	1
1004.6723	2.411	Congruent1	0.376	1
1007.0903	2.418	Congruent1	0.334	1
1009.5253	2.415	Congruent1	0.363	1
1011.9443	2.413	Congruent1	0.344	1
1014.3633	2.409	Congruent1	0.357	1
1016.7813	2.417	Congruent1	0.315	1
1019.2003	2.418	Congruent1	0.416	1
1021.6353	2.42	Congruent1	0.485	1
1024.0703	2.406	Congruent1	0.337	1
1026.4893	2.41	Congruent1	0.342	1
1028.9073	2.425	Congruent1	0.324	1
1031.3423	2.417	Congruent1	0.465	1
1033.7613	2.41	Congruent1	0.342	1
1036.1793	2.41	Congruent1	0.292	1
1038.5983	2.413	Congruent1	0.345	1
1041.0163	2.422	Congruent1	0.287	1
1043.4523	2.415	Congruent1	0.347	1
1045.8703	2.424	Congruent1	0.273	1
1048.3053	2.401	Congruent1	0.349	1
1050.7243	2.422	Congruent1	0.37	1
1053.1593	2.419	Congruent1	0.351	1
1055.5943	2.408	Congruent1	0.356	1
1058.0133	2.412	Congruent1	0.361	1
1060.4313	2.419	Congruent1	0.351	1
1062.8663	2.414	Congruent1	0.396	1
1065.2853	2.413	Congruent1	0.329	1
1067.7033	2.416	Congruent1	0.431	1
1070.1223	2.423	Congruent1	0.355	1
1072.5573	2.413	Congruent1	0.328	1
1074.9763	2.418	Congruent1	0.333	1
1077.4113	2.413	Congruent1	0.362	1
1079.8293	2.411	Congruent1	0.376	1
1082.2483	2.42	Congruent1	0.285	1
1084.6833	2.406	Congruent1	0.354	1
1087.1023	2.415	Congruent1	0.247	1
1089.5203	2.418	Congruent1	0.333	1
1091.9393	2.424	Congruent1	0.322	1
1094.3743	2.405	Congruent1	0.286	1
1096.7933	1.815	Congruent1	0.315	0
