onset	duration	trial_type	response_time	accuracy
3e-04	2.414	Control1	0.398	1
2.4163	2.415	Control1	0.382	1
4.8333	2.407	Control1	0.357	1
7.2493	2.414	Control1	0.365	1
9.6653	2.425	Control1	0.309	1
12.0983	2.4	Control1	0.3	1
14.5153	2.426	Control1	0.243	1
16.9483	2.42	Control1	0.337	1
19.3813	2.408	Control1	0.392	1
21.7973	2.42	Control1	0.304	1
24.2303	2.402	Control1	0.303	1
26.6463	2.428	Control1	0.295	1
29.0793	2.408	Control1	0.358	1
31.4963	2.414	Control1	0.381	1
33.9123	2.413	Control1	0.38	1
36.3283	2.421	Control1	0.388	1
38.7613	2.415	Control1	0.299	1
41.1943	2.415	Control1	0.282	1
43.6113	2.416	Control1	0.233	1
46.0443	2.412	Control1	0.296	1
48.4603	2.411	Control1	0.328	1
50.8763	2.419	Control1	0.32	1
53.3093	2.418	Control1	0.302	1
55.7423	2.409	Control1	0.309	1
58.1593	2.422	Control1	0.372	1
60.5923	2.413	Control1	0.363	1
63.0083	2.419	Control1	0.419	1
65.4413	2.413	Control1	0.33	1
67.8573	2.419	Control1	0.386	1
70.2903	2.417	Control1	0.384	1
72.7233	2.408	Control1	0.391	1
75.1403	2.424	Control1	0.374	1
77.5733	2.401	Control1	0.485	1
79.9893	2.414	Control1	0.365	1
82.4053	2.424	Control1	0.341	1
84.8383	2.407	Control1	0.324	1
87.2553	2.428	Control1	0.395	1
89.6883	2.413	Control1	0.313	1
92.1043	2.404	Control1	0.321	1
94.5203	2.415	Control1	0.265	1
96.9373	2.42	Control1	0.32	1
99.3703	2.418	Control1	0.351	1
101.8033	2.409	Control1	0.326	1
104.2193	2.42	Control1	0.27	1
106.6523	2.414	Control1	0.348	1
109.0683	2.423	Control1	0.324	1
111.5013	2.414	Control1	0.347	1
113.9183	2.405	Control1	0.322	1
116.3343	2.428	Control1	0.362	1
118.7673	2.4	Control1	0.401	1
121.1833	2.419	Control1	0.353	1
123.6163	2.419	Control1	0.32	1
126.0493	2.423	Control1	0.374	1
128.4823	2.4	Control1	0.333	1
130.8993	2.421	Control1	0.388	1
133.3323	2.414	Control1	0.331	1
135.7483	2.421	Control1	0.371	1
138.1813	2.42	Control1	0.354	1
140.6143	2.403	Control1	0.337	1
143.0303	2.427	Control1	0.344	1
145.4633	2.407	Control1	0.407	1
147.8803	2.409	Control1	0.326	1
150.2963	2.424	Control1	0.374	1
152.7293	2.416	Control1	0.333	1
155.1623	2.405	Control1	0.356	1
157.5783	2.422	Control1	0.356	1
160.0113	2.414	Control1	0.347	1
162.4283	2.411	Control1	0.345	1
164.8443	2.419	Control1	0.369	1
167.2773	2.42	Control1	0.304	1
169.7103	2.403	Control1	0.287	1
172.1263	1.755	Control1	0.239	1
185.1243	2.529	CongMix	0.696	1
187.6573	2.235	IncongMix	0.435	1
189.9073	2.71	IncongMix	0.577	1
192.6233	1.935	IncongMix	0.469	1
194.5733	2.117	IncongMix	0.567	1
196.7063	2.011	IncongMix	0.577	1
198.7233	2.737	IncongMix	0.504	1
201.4723	2.385	CongMix	0.419	1
203.8723	2.288	CongMix	0.371	1
206.1723	2.439	CongMix	0.423	1
208.6213	2.705	CongMix	0.438	1
211.3383	1.935	CongMix	0.369	1
213.2873	2.574	IncongMix	0.508	1
215.8703	2.444	CongMix	0.444	1
218.3203	2.889	IncongMix	0.522	1
221.2203	2.2	IncongMix	0.55	1
223.4363	2.869	CongMix	0.486	1
226.3193	2.106	IncongMix	0.523	1
228.4353	2.629	CongMix	0.479	1
231.0683	2.516	IncongMix	0.55	1
233.6013	1.985	IncongMix	0.552	1
235.6013	2.109	IncongMix	0.576	1
237.7173	2.801	CongMix	0.468	1
240.5343	2.192	IncongMix	0.459	1
242.7333	2.379	CongMix	0.396	1
245.1163	2.018	CongMix	0.485	1
247.1493	2.219	CongMix	0.42	1
249.3823	2.121	CongMix	0.555	1
251.5153	2.267	IncongMix	0.501	1
253.7983	1.953	CongMix	0.37	1
255.7653	2.296	IncongMix	0.547	1
258.0643	2.817	CongMix	0.384	1
260.8973	2.891	IncongMix	0.591	1
263.7973	2.877	IncongMix	0.611	1
266.6803	2.349	IncongMix	0.416	1
269.0303	2.21	CongMix	0.41	1
271.2463	2.548	CongMix	0.449	1
273.8123	2.626	CongMix	0.443	1
276.4453	2.174	CongMix	0.458	1
278.6283	2.876	IncongMix	0.443	1
281.5113	2.579	IncongMix	0.496	1
284.0943	2.855	CongMix	0.489	1
286.9603	2.079	CongMix	0.479	1
289.0443	2.258	CongMix	0.458	1
291.3103	2.734	IncongMix	0.584	1
294.0603	2.149	CongMix	0.466	1
296.2263	2.806	CongMix	0.556	1
299.0423	2.629	CongMix	0.396	1
301.6753	2.887	CongMix	0.587	1
304.5753	2.074	IncongMix	0.591	1
306.6583	2.508	IncongMix	0.675	1
309.1743	2.14	CongMix	0.407	1
311.3243	1.997	IncongMix	0.497	1
313.3243	2.45	CongMix	0.433	1
315.7903	1.934	IncongMix	0.567	1
317.7403	2.783	IncongMix	0.417	1
320.5393	2.625	CongMix	0.442	1
323.1723	2.247	IncongMix	0.497	1
325.4223	2.306	CongMix	0.406	1
327.7383	2.18	IncongMix	0.53	1
329.9213	2.691	CongMix	0.491	1
332.6213	2.384	CongMix	0.367	1
335.0213	1.922	IncongMix	0.455	1
336.9543	2.893	IncongMix	0.41	1
339.8533	2.082	CongMix	0.383	1
341.9363	2.326	IncongMix	0.627	1
344.2693	2.746	IncongMix	0.63	1
347.0193	2.739	IncongMix	0.456	1
349.7693	2.234	CongMix	0.434	1
352.0183	2.559	CongMix	0.625	1
354.5853	2.368	IncongMix	0.434	1
356.9683	1.943	IncongMix	0.395	1
369.9493	2.407	Neutral1	0.741	1
372.3653	2.414	Neutral1	0.397	1
374.7823	2.412	Neutral1	0.396	1
377.1983	2.418	Neutral1	0.452	1
379.6313	2.418	Neutral1	0.418	1
382.0643	2.41	Neutral1	0.377	1
384.4803	2.428	Neutral1	0.329	1
386.9133	2.404	Neutral1	0.304	1
389.3303	2.419	Neutral1	0.319	1
391.7633	2.42	Neutral1	0.47	1
394.1963	2.415	Neutral1	0.549	1
396.6123	2.414	Neutral1	0.348	1
399.0283	2.411	Neutral1	0.428	1
401.4453	2.419	Neutral1	0.419	1
403.8783	2.419	Neutral1	0.386	1
406.3113	2.415	Neutral1	0.449	1
408.7273	2.41	Neutral1	0.361	1
411.1433	2.423	Neutral1	0.457	1
413.5763	2.409	Neutral1	0.392	1
415.9933	2.417	Neutral1	0.35	1
418.4263	2.407	Neutral1	0.557	1
420.8423	2.426	Neutral1	0.493	1
423.2753	2.41	Neutral1	0.444	1
425.6913	2.411	Neutral1	0.444	1
428.1083	2.414	Neutral1	0.363	1
430.5253	2.416	Neutral1	0.45	1
432.9573	2.419	Neutral1	0.553	1
435.3903	2.418	Neutral1	0.552	1
437.8233	2.406	Neutral1	0.407	1
440.2393	2.425	Neutral1	0.359	1
442.6723	2.413	Neutral1	0.446	1
445.0893	2.405	Neutral1	0.405	1
447.5053	2.414	Neutral1	0.365	1
449.9213	2.428	Neutral1	0.429	1
452.3543	2.415	Neutral1	0.515	1
454.7713	2.402	Neutral1	0.386	1
457.1873	2.427	Neutral1	0.394	1
459.6203	2.406	Neutral1	0.473	1
462.0363	2.42	Neutral1	0.537	1
464.4693	2.41	Neutral1	0.36	1
466.8863	2.417	Neutral1	0.367	1
469.3193	2.416	Neutral1	0.349	1
471.7523	2.417	Neutral1	0.3	1
474.1853	2.405	Neutral1	0.355	1
476.6013	2.414	Neutral1	0.315	1
479.0173	2.422	Neutral1	0.523	1
481.4503	2.418	Neutral1	0.402	1
483.8833	2.419	Neutral1	0.553	1
486.3163	2.41	Neutral1	0.36	1
488.7333	2.413	Neutral1	0.63	1
491.1493	2.42	Neutral1	0.47	1
493.5823	2.415	Neutral1	0.549	1
496.0153	2.42	Neutral1	0.404	1
498.4483	2.404	Neutral1	0.355	1
500.8643	2.419	Neutral1	0.403	1
503.2973	2.418	Neutral1	0.402	1
505.7303	2.415	Neutral1	0.432	1
508.1473	2.407	Neutral1	0.391	1
510.5633	2.419	Neutral1	0.503	1
512.9963	2.407	Neutral1	0.374	1
515.4123	2.419	Neutral1	0.486	1
517.8453	2.418	Neutral1	0.469	1
520.2783	2.423	Neutral1	0.524	1
522.7113	2.404	Neutral1	0.387	1
525.1283	2.422	Neutral1	0.489	1
527.5613	2.408	Neutral1	0.408	1
529.9773	2.411	Neutral1	0.328	1
532.3933	2.417	Neutral1	0.368	1
534.8263	2.425	Neutral1	0.559	1
537.2593	2.406	Neutral1	0.406	1
539.6763	2.412	Neutral1	0.429	1
542.0923	1.953	Neutral1	0.436	1
555.0743	2.087	IncongMix	0.454	1
557.1733	2.878	IncongMix	0.579	1
560.0563	2.798	CongMix	0.415	1
562.8563	2.425	CongMix	0.375	1
565.2893	2.191	IncongMix	0.374	1
567.4893	2.267	CongMix	0.55	1
569.7723	2.861	IncongMix	0.411	1
572.6383	2.242	IncongMix	0.409	1
574.8883	2.712	IncongMix	0.479	1
577.6043	2.692	CongMix	0.475	1
580.3043	1.922	IncongMix	0.638	1
582.2373	2.013	IncongMix	0.497	1
584.2533	2.175	CongMix	0.409	1
586.4363	2.678	CongMix	0.362	1
589.1193	2.608	CongMix	0.375	1
591.7353	2.374	CongMix	0.391	1
594.1183	2.612	CongMix	0.512	1
596.7353	2.514	IncongMix	0.398	1
599.2513	2.357	IncongMix	0.674	1
601.6173	2.863	CongMix	0.396	1
604.4843	2.795	CongMix	0.345	1
607.2833	2.461	IncongMix	0.378	1
609.7493	2.559	IncongMix	0.592	1
612.3163	2.322	IncongMix	0.705	1
614.6493	2.005	IncongMix	0.539	1
616.6653	2.115	CongMix	0.515	1
618.7823	2.212	CongMix	0.462	1
620.9983	2.139	IncongMix	0.606	1
623.1483	1.941	IncongMix	0.592	1
625.0973	1.943	CongMix	0.427	1
627.0473	2.291	IncongMix	0.741	1
629.3473	2.903	IncongMix	0.553	1
632.2633	2.077	CongMix	0.444	1
634.3463	2.742	IncongMix	0.425	1
637.0963	2.263	IncongMix	0.547	1
639.3623	2.506	IncongMix	0.457	1
641.8783	2.322	CongMix	0.389	1
644.2113	2.1	CongMix	0.4	1
646.3283	2.811	CongMix	0.595	1
649.1443	2.232	IncongMix	0.499	1
651.3773	2.212	IncongMix	0.513	1
653.5933	2.896	CongMix	0.513	1
656.4933	2.058	IncongMix	0.509	1
658.5593	2.562	CongMix	0.379	1
661.1263	2.458	CongMix	0.492	1
663.5923	2.851	CongMix	0.402	1
666.4583	2.522	CongMix	0.656	1
668.9913	2.391	CongMix	0.458	1
671.3913	2.624	CongMix	0.474	1
674.0243	2.283	CongMix	0.433	1
676.3243	2.197	CongMix	0.381	1
678.5233	2.179	IncongMix	0.446	1
680.7063	2.649	CongMix	0.399	1
683.3563	2.586	IncongMix	0.469	1
685.9563	2.354	IncongMix	0.621	1
688.3223	1.965	CongMix	0.382	1
690.3053	2.013	CongMix	0.647	1
692.3213	1.921	IncongMix	0.487	1
694.2553	2.451	CongMix	0.601	1
696.7213	2.789	IncongMix	0.439	1
699.5213	2.893	IncongMix	0.527	1
702.4203	2.747	IncongMix	0.564	1
705.1703	2.238	CongMix	0.405	1
707.4193	2.725	IncongMix	0.492	1
710.1523	2.114	IncongMix	0.447	1
712.2693	2.893	IncongMix	0.394	1
715.1683	2.149	CongMix	0.383	1
717.3183	2.144	CongMix	0.377	1
719.4683	2.743	IncongMix	0.427	1
722.2173	1.998	IncongMix	0.398	1
724.2173	2.405	CongMix	0.389	1
726.6333	2.026	CongMix	0.365	1
739.7323	2.4	Congruent1	0.45	1
742.1483	2.419	Congruent1	0.353	1
744.5813	2.411	Congruent1	0.328	1
746.9973	2.424	Congruent1	0.408	1
749.4303	2.419	Congruent1	0.303	1
751.8633	2.409	Congruent1	0.326	0
754.2803	2.415	Congruent1	0.365	1
756.6963	2.423	Congruent1	0.373	1
759.1293	2.411	Congruent1	0.395	1
761.5453	2.405	Congruent1	0.355	1
763.9623	2.423	Congruent1	0.506	1
766.3953	2.407	Congruent1	0.457	1
768.8113	2.426	Congruent1	0.393	1
771.2443	2.407	Congruent1	0.424	1
773.6603	2.417	Congruent1	0.368	1
776.0933	2.424	Congruent1	0.375	1
778.5263	2.414	Congruent1	0.381	1
780.9433	2.412	Congruent1	0.396	1
783.3593	2.405	Congruent1	0.372	1
785.7753	2.422	Congruent1	0.356	1
788.2083	2.41	Congruent1	0.427	1
790.6253	2.417	Congruent1	0.45	1
793.0583	2.411	Congruent1	0.345	1
795.4743	2.418	Congruent1	0.352	1
797.9073	2.41	Congruent1	0.327	1
800.3233	2.415	Congruent1	0.399	1
802.7563	2.415	Congruent1	0.398	1
805.1733	2.424	Congruent1	0.325	1
807.6063	2.411	Congruent1	0.428	1
810.0223	2.41	Congruent1	0.444	1
812.4383	2.42	Congruent1	0.404	1
814.8713	2.419	Congruent1	0.386	1
817.3043	2.418	Congruent1	0.385	1
819.7373	2.409	Congruent1	0.376	1
822.1543	2.415	Congruent1	0.415	1
824.5703	2.413	Congruent1	0.447	1
826.9863	2.416	Congruent1	0.367	1
829.4193	2.422	Congruent1	0.406	1
831.8523	2.406	Congruent1	0.356	1
834.2693	2.422	Congruent1	0.339	1
836.7023	2.413	Congruent1	0.53	1
839.1183	2.411	Congruent1	0.578	1
841.5343	2.425	Congruent1	0.442	1
843.9673	2.413	Congruent1	0.313	1
846.3843	2.417	Congruent1	0.384	1
848.8173	2.409	Congruent1	0.359	1
851.2333	2.413	Congruent1	0.43	1
853.6493	2.415	Congruent1	0.782	1
856.0663	2.42	Congruent1	0.453	1
858.4993	2.414	Congruent1	0.364	1
860.9153	2.411	Congruent1	0.412	1
863.3313	2.42	Congruent1	0.404	1
865.7643	2.406	Congruent1	0.323	1
868.1813	2.427	Congruent1	0.377	1
870.6143	2.412	Congruent1	0.512	1
873.0303	2.417	Congruent1	0.584	1
875.4633	2.413	Congruent1	0.447	1
877.8793	2.408	Congruent1	0.375	1
880.2963	2.425	Congruent1	0.358	1
882.7293	2.415	Congruent1	0.365	1
885.1453	2.417	Congruent1	0.301	1
887.5783	2.413	Congruent1	0.347	1
889.9943	2.406	Congruent1	0.339	1
892.4113	2.412	Congruent1	0.362	1
894.8273	2.414	Congruent1	0.498	1
897.2433	2.427	Congruent1	0.394	1
899.6763	2.402	Congruent1	0.369	1
902.0933	2.429	Congruent1	0.512	1
904.5263	2.405	Congruent1	0.422	1
906.9423	2.418	Congruent1	0.502	1
909.3753	2.42	Congruent1	0.437	1
911.8083	1.904	Congruent1	0.388	1
924.7563	2.848	CongMix	0.399	1
927.6063	2.547	CongMix	0.381	1
930.1553	2.257	IncongMix	0.44	1
932.4223	2.89	CongMix	0.357	0
935.3213	2.353	IncongMix	0.386	1
937.6883	2.742	IncongMix	0.459	1
940.4373	2.798	IncongMix	0.382	1
943.2373	2.396	CongMix	0.429	1
945.6373	2.234	IncongMix	0.485	1
947.8863	2.795	CongMix	0.412	1
950.6863	2.365	IncongMix	0.532	1
953.0523	2.506	IncongMix	0.606	1
955.5693	2.637	CongMix	0.321	1
958.2183	2.502	IncongMix	0.352	1
960.7353	2.122	IncongMix	0.522	1
962.8683	1.916	IncongMix	0.349	0
964.8013	2.206	CongMix	0.456	1
967.0173	2.151	CongMix	0.368	1
969.1833	2.718	IncongMix	0.602	1
971.9163	2.088	CongMix	0.405	1
974.0163	2.182	CongMix	0.433	1
976.1993	2.002	IncongMix	0.602	1
978.2163	1.945	CongMix	0.512	1
980.1653	2.326	IncongMix	0.627	1
982.4983	2.677	CongMix	0.494	1
985.1813	2.558	CongMix	0.475	1
987.7483	2.435	CongMix	0.436	1
990.1973	2.074	IncongMix	0.491	1
992.2803	2.748	IncongMix	0.448	1
995.0303	2.897	IncongMix	0.497	1
997.9303	2.23	CongMix	0.413	1
1000.1633	2.455	CongMix	0.572	1
1002.6293	2.306	IncongMix	0.506	1
1004.9453	2.141	CongMix	0.558	1
1007.0953	2.888	IncongMix	0.688	1
1009.9953	2.896	IncongMix	0.38	1
1012.8943	2.247	IncongMix	0.48	1
1015.1443	2.866	CongMix	0.366	1
1018.0273	2.388	CongMix	0.355	1
1020.4263	2.567	IncongMix	0.668	1
1023.0093	1.932	IncongMix	0.533	1
1024.9423	2.187	IncongMix	0.504	1
1027.1423	2.092	IncongMix	0.592	1
1029.2423	1.914	IncongMix	0.564	1
1031.1583	2.318	CongMix	0.519	1
1033.4913	2.867	IncongMix	0.434	1
1036.3743	2.002	IncongMix	0.535	1
1038.3913	2.269	CongMix	0.502	1
1040.6743	2.444	IncongMix	0.411	1
1043.1233	2.187	IncongMix	0.554	1
1045.3233	2.434	CongMix	0.434	1
1047.7733	2.217	IncongMix	0.6	1
1050.0063	2.001	IncongMix	0.518	1
1052.0223	2.703	IncongMix	0.454	1
1054.7383	2.811	CongMix	0.394	1
1057.5553	2.21	CongMix	0.577	1
1059.7713	2.717	CongMix	0.417	1
1062.5043	2.612	CongMix	0.396	1
1065.1203	2.529	CongMix	0.396	1
1067.6533	2.75	IncongMix	0.55	1
1070.4203	2.017	CongMix	0.567	1
1072.4533	2.128	IncongMix	0.478	1
1074.5863	2.873	IncongMix	0.473	1
1077.4693	1.956	CongMix	0.39	1
1079.4353	2.122	CongMix	0.456	1
1081.5683	2.092	CongMix	0.475	1
1083.6683	2.282	CongMix	0.415	1
1085.9513	2.583	IncongMix	0.467	1
1088.5503	2.381	CongMix	0.316	1
1090.9333	2.604	CongMix	0.421	1
1093.5503	2.631	CongMix	0.532	1
1096.1993	2.315	CongMix	0.419	1
