onset	duration	trial_type	response_time	accuracy
3e-04	2.004	IncongMix	0.538	1
2.0163	2.436	CongMix	0.386	1
4.4663	2.852	CongMix	0.336	1
7.3323	2.38	CongMix	0.414	1
9.7153	2.067	IncongMix	0.367	0
11.7993	2.876	IncongMix	0.427	1
14.6813	2.391	CongMix	0.408	1
17.0813	2.502	IncongMix	0.536	1
19.5973	2.708	IncongMix	0.508	1
22.3143	2.551	CongMix	0.551	1
24.8803	2.72	IncongMix	0.537	1
27.6133	1.946	IncongMix	0.596	1
29.5633	2.891	IncongMix	0.542	1
32.4623	2.13	IncongMix	0.563	1
34.5963	2.737	IncongMix	0.637	1
37.3453	2.123	CongMix	0.623	1
39.4783	2.706	CongMix	0.522	1
42.1953	2.234	CongMix	0.501	1
44.4443	2.462	IncongMix	0.628	1
46.9113	2.443	CongMix	0.593	1
49.3603	2.205	CongMix	0.472	1
51.5773	2.815	CongMix	0.415	1
54.3933	2.14	CongMix	0.423	1
56.5433	2.524	CongMix	0.441	1
59.0763	2.216	IncongMix	0.483	1
61.3093	2.292	IncongMix	0.626	1
63.6083	2.905	IncongMix	0.655	1
66.5253	2.197	CongMix	0.514	1
68.7243	2.583	IncongMix	0.467	1
71.3243	2.283	CongMix	0.483	1
73.6243	2.57	CongMix	0.503	1
76.2073	2.789	IncongMix	0.456	1
79.0063	2.747	IncongMix	0.481	1
81.7563	2.814	CongMix	0.498	1
84.5723	2.249	IncongMix	0.466	1
86.8393	2.084	CongMix	0.551	1
88.9383	2.175	CongMix	0.492	1
91.1213	2.019	CongMix	0.669	1
93.1553	2.364	IncongMix	0.747	1
95.5213	2.101	CongMix	0.501	1
97.6373	1.999	IncongMix	0.449	1
99.6373	2.448	CongMix	0.465	1
102.0873	2.629	CongMix	0.446	1
104.7203	2.327	IncongMix	0.477	1
107.0533	2.608	CongMix	0.408	1
109.6693	2.187	IncongMix	0.504	1
111.8693	1.919	IncongMix	0.536	1
113.8023	2.107	IncongMix	0.491	1
115.9183	2.194	IncongMix	0.511	1
118.1183	2.785	CongMix	0.535	1
120.9183	2.637	CongMix	0.471	1
123.5673	2.322	CongMix	0.406	1
125.9003	1.957	CongMix	0.424	1
127.8673	2.366	IncongMix	0.449	1
130.2503	2.395	CongMix	0.346	1
132.6493	2.089	IncongMix	0.523	1
134.7493	2.864	IncongMix	0.415	1
137.6153	2.264	CongMix	0.581	1
139.8823	2.239	IncongMix	0.506	1
142.1313	2.754	IncongMix	0.537	1
144.8983	1.916	IncongMix	0.833	1
146.8313	2.162	CongMix	0.412	1
148.9973	2.845	CongMix	0.462	1
151.8473	2.572	IncongMix	0.572	1
154.4303	1.99	IncongMix	0.573	1
156.4303	2.684	CongMix	0.485	1
159.1293	2.616	CongMix	0.45	1
161.7623	1.949	CongMix	0.449	1
163.7123	2.875	CongMix	0.459	1
166.5953	2.899	IncongMix	0.383	1
169.5113	2.238	IncongMix	0.571	1
171.7613	2.18	IncongMix	0.569	1
184.8433	2.401	Neutral1	0.551	1
187.2593	2.427	Neutral1	0.511	1
189.6923	2.41	Neutral1	0.461	1
192.1083	2.419	Neutral1	0.453	1
194.5413	2.41	Neutral1	0.46	1
196.9583	2.408	Neutral1	0.475	1
199.3743	2.42	Neutral1	0.387	1
201.8073	2.418	Neutral1	0.418	1
204.2403	2.416	Neutral1	0.433	1
206.6733	2.422	Neutral1	0.472	1
209.1063	2.412	Neutral1	0.463	1
211.5223	2.413	Neutral1	0.446	1
213.9393	2.406	Neutral1	0.373	1
216.3553	2.429	Neutral1	0.413	1
218.7883	2.399	Neutral1	0.5	1
221.2043	2.426	Neutral1	0.46	1
223.6373	2.421	Neutral1	0.371	1
226.0713	2.402	Neutral1	0.385	1
228.4873	2.416	Neutral1	0.449	1
230.9203	2.414	Neutral1	0.464	1
233.3363	2.423	Neutral1	0.423	1
235.7693	2.42	Neutral1	0.47	1
238.2023	2.404	Neutral1	0.437	1
240.6193	2.425	Neutral1	0.492	1
243.0523	2.417	Neutral1	0.467	1
245.4853	2.408	Neutral1	0.458	1
247.9013	2.408	Neutral1	0.442	1
250.3173	2.422	Neutral1	0.506	1
252.7503	2.422	Neutral1	0.489	1
255.1833	2.406	Neutral1	0.623	1
257.6003	2.425	Neutral1	0.558	1
260.0333	2.411	Neutral1	0.461	1
262.4493	2.418	Neutral1	0.485	1
264.8823	2.411	Neutral1	0.428	1
267.2983	2.412	Neutral1	0.412	1
269.7153	2.416	Neutral1	0.499	1
272.1483	2.417	Neutral1	0.45	1
274.5813	2.415	Neutral1	0.449	1
276.9973	2.407	Neutral1	0.44	1
279.4143	2.414	Neutral1	0.447	1
281.8303	2.414	Neutral1	0.415	1
284.2463	2.428	Neutral1	0.479	1
286.6793	2.414	Neutral1	0.414	1
289.0963	2.42	Neutral1	0.653	1
291.5293	2.414	Neutral1	0.364	1
293.9453	2.408	Neutral1	0.492	1
296.3613	2.419	Neutral1	0.436	1
298.7943	2.409	Neutral1	0.626	1
301.2113	2.411	Neutral1	0.561	1
303.6273	2.425	Neutral1	0.425	1
306.0603	2.413	Neutral1	0.48	1
308.4763	2.411	Neutral1	0.528	1
310.8933	2.422	Neutral1	0.455	1
313.3263	2.412	Neutral1	0.462	1
315.7423	2.421	Neutral1	0.438	1
318.1753	2.41	Neutral1	0.461	1
320.5913	2.419	Neutral1	0.452	1
323.0253	2.418	Neutral1	0.418	1
325.4583	2.41	Neutral1	0.377	1
327.8743	2.414	Neutral1	0.481	1
330.2903	2.408	Neutral1	0.425	1
332.7073	2.424	Neutral1	0.624	1
335.1403	2.413	Neutral1	0.447	1
337.5563	2.415	Neutral1	0.383	1
339.9723	2.415	Neutral1	0.415	1
342.3893	2.413	Neutral1	0.413	1
344.8053	2.421	Neutral1	0.405	1
347.2383	2.411	Neutral1	0.612	1
349.6543	2.424	Neutral1	0.508	1
352.0873	2.412	Neutral1	0.395	1
354.5043	2.415	Neutral1	0.482	1
356.9373	2.03	Neutral1	0.513	1
369.9023	2.131	CongMix	0.515	1
372.0353	2.55	CongMix	0.534	1
374.6013	2.597	IncongMix	0.664	1
377.2013	2.743	IncongMix	0.544	1
379.9503	1.921	IncongMix	0.555	1
381.8833	2.866	IncongMix	0.55	1
384.7503	2.447	CongMix	0.498	1
387.1993	2.858	CongMix	0.641	1
390.0663	2.352	IncongMix	0.502	1
392.4323	2.744	IncongMix	0.544	1
395.1823	2.464	CongMix	0.514	1
397.6483	2.004	IncongMix	0.488	1
399.6643	2.216	CongMix	0.416	1
401.8813	1.912	IncongMix	0.679	1
403.7973	2.553	CongMix	0.603	1
406.3643	1.942	IncongMix	0.459	1
408.3133	2.08	IncongMix	0.614	1
410.3963	2.74	IncongMix	0.707	1
413.1463	2.626	CongMix	0.493	1
415.7793	2.843	CongMix	0.46	1
418.6293	2.895	CongMix	0.546	1
421.5283	2.083	CongMix	0.567	1
423.6283	2.817	CongMix	0.451	1
426.4613	2.207	CongMix	0.474	1
428.6773	2.707	CongMix	0.457	1
431.3943	2.362	IncongMix	0.612	1
433.7603	2.601	CongMix	0.502	1
436.3763	2.446	CongMix	0.446	1
438.8263	2.51	IncongMix	0.644	1
441.3423	2.566	IncongMix	0.616	1
443.9093	2.796	CongMix	0.497	1
446.7083	2.255	CongMix	0.522	1
448.9753	1.957	CongMix	0.574	1
450.9413	2.815	CongMix	0.432	1
453.7743	2.011	IncongMix	0.727	1
455.7913	2.126	IncongMix	0.742	1
457.9243	2.186	IncongMix	0.553	1
460.1233	2.699	IncongMix	0.666	1
462.8233	1.943	CongMix	0.526	1
464.7733	2.68	CongMix	0.48	1
467.4563	2.12	CongMix	0.637	1
469.5893	2.298	IncongMix	0.632	1
471.8883	2.903	IncongMix	0.636	1
474.8053	2.385	CongMix	0.519	1
477.2043	2.806	IncongMix	0.456	1
480.0213	2.621	CongMix	0.471	1
482.6543	2.865	IncongMix	0.582	1
485.5373	2.272	CongMix	0.539	1
487.8203	2.252	IncongMix	0.536	1
490.0863	2.248	IncongMix	0.598	1
492.3363	2.151	CongMix	0.451	1
494.5023	2.095	IncongMix	0.645	1
496.6023	2.89	IncongMix	0.641	1
499.5013	2.394	CongMix	0.494	1
501.9013	2.492	IncongMix	0.542	1
504.4013	2.224	IncongMix	0.674	1
506.6343	2.319	CongMix	0.569	1
508.9673	2.884	IncongMix	0.5	1
511.8673	2.187	IncongMix	0.504	1
514.0663	2.077	CongMix	0.544	1
516.1493	2.645	CongMix	0.429	1
518.7993	2.706	IncongMix	0.507	1
521.5153	2.459	IncongMix	0.559	1
523.9823	2.376	CongMix	0.476	1
526.3653	2.527	CongMix	0.477	1
528.8983	2.171	CongMix	0.504	1
531.0813	2.032	CongMix	0.665	1
533.1143	2.231	CongMix	0.448	1
535.3473	2.263	IncongMix	0.63	1
537.6133	2.323	IncongMix	0.54	1
539.9463	1.998	IncongMix	0.631	1
541.9463	1.79	IncongMix	0.575	1
554.5943	2.402	Congruent1	0.535	1
557.0113	2.419	Congruent1	0.469	1
559.4443	2.418	Congruent1	0.468	1
561.8773	2.409	Congruent1	0.443	1
564.2933	2.425	Congruent1	0.475	1
566.7263	2.408	Congruent1	0.442	1
569.1423	2.411	Congruent1	0.594	1
571.5593	2.428	Congruent1	0.529	1
573.9923	2.417	Congruent1	0.584	1
576.4253	2.403	Congruent1	0.487	1
578.8413	2.419	Congruent1	0.486	1
581.2743	2.419	Congruent1	0.453	1
583.7073	2.404	Congruent1	0.62	1
586.1243	2.425	Congruent1	0.491	1
588.5573	2.409	Congruent1	0.442	1
590.9733	2.425	Congruent1	0.442	1
593.4063	2.407	Congruent1	0.441	1
595.8223	2.422	Congruent1	0.473	1
598.2553	2.416	Congruent1	0.4	1
600.6883	2.408	Congruent1	0.558	1
603.1053	2.413	Congruent1	0.413	1
605.5213	2.421	Congruent1	0.405	1
607.9543	2.413	Congruent1	0.38	1
610.3703	2.415	Congruent1	0.348	1
612.7873	2.419	Congruent1	0.419	1
615.2203	2.401	Congruent1	0.418	1
617.6363	2.427	Congruent1	0.394	1
620.0693	2.409	Congruent1	0.393	1
622.4853	2.423	Congruent1	0.44	1
624.9183	2.415	Congruent1	0.415	1
627.3353	2.399	Congruent1	0.366	1
629.7513	2.43	Congruent1	0.414	1
632.1843	2.406	Congruent1	0.389	1
634.6013	2.413	Congruent1	0.396	1
637.0173	2.417	Congruent1	0.7	1
639.4503	2.427	Congruent1	0.427	1
641.8833	2.4	Congruent1	0.45	1
644.2993	2.428	Congruent1	0.529	1
646.7323	2.415	Congruent1	0.632	1
649.1653	2.407	Congruent1	0.407	1
651.5823	2.418	Congruent1	0.718	1
654.0153	2.421	Congruent1	0.421	1
656.4483	2.402	Congruent1	0.436	1
658.8643	2.42	Congruent1	0.604	1
661.2973	2.425	Congruent1	0.675	1
663.7303	2.404	Congruent1	0.538	1
666.1463	2.424	Congruent1	0.425	1
668.5793	2.406	Congruent1	0.456	1
670.9963	2.415	Congruent1	0.415	1
673.4293	2.418	Congruent1	0.518	1
675.8623	2.422	Congruent1	0.405	1
678.2953	2.403	Congruent1	0.62	1
680.7113	2.428	Congruent1	0.612	1
683.1443	2.417	Congruent1	0.651	1
685.5773	2.416	Congruent1	0.682	1
687.9943	2.404	Congruent1	0.504	1
690.4103	2.414	Congruent1	0.664	1
692.8263	2.423	Congruent1	0.44	1
695.2593	2.407	Congruent1	0.607	1
697.6763	2.425	Congruent1	0.542	1
700.1093	2.416	Congruent1	0.533	1
702.5423	2.416	Congruent1	0.516	1
704.9753	2.414	Congruent1	0.531	1
707.3913	2.412	Congruent1	0.363	1
709.8073	2.408	Congruent1	0.458	1
712.2243	2.428	Congruent1	0.545	1
714.6573	2.408	Congruent1	0.608	1
717.0733	2.409	Congruent1	0.56	1
719.4893	2.423	Congruent1	0.424	1
721.9223	2.42	Congruent1	0.487	1
724.3553	2.407	Congruent1	0.374	1
726.7723	1.913	Congruent1	0.397	1
739.7203	2.791	CongMix	0.624	1
742.5203	2.181	IncongMix	0.448	1
744.7033	2.245	IncongMix	0.561	1
746.9533	2.002	IncongMix	0.519	1
748.9693	2.113	IncongMix	0.463	1
751.0863	2.325	CongMix	0.426	1
753.4183	2.176	IncongMix	0.477	1
755.6013	2.388	CongMix	0.422	1
758.0013	2.887	CongMix	0.454	1
760.9013	2.354	IncongMix	0.554	1
763.2673	2.852	CongMix	0.436	1
766.1333	2.461	CongMix	0.378	1
768.6003	2.012	IncongMix	0.479	1
770.6163	2.89	IncongMix	0.407	1
773.5163	2.61	CongMix	0.427	1
776.1323	2.213	IncongMix	0.53	1
778.3483	2.165	CongMix	0.666	1
780.5153	2.076	IncongMix	0.643	1
782.5983	2.871	IncongMix	0.488	1
785.4813	2.444	CongMix	0.477	1
787.9313	2.432	IncongMix	0.515	1
790.3643	2.202	CongMix	0.402	1
792.5803	2.895	IncongMix	0.362	1
795.4803	2.747	IncongMix	0.581	1
798.2293	2.115	IncongMix	0.432	0
800.3623	2.396	CongMix	0.379	1
802.7623	2.507	IncongMix	0.507	1
805.2783	2.324	IncongMix	0.591	1
807.6113	2.007	CongMix	0.49	1
809.6283	2.878	IncongMix	0.545	1
812.5113	2.304	IncongMix	0.638	1
814.8273	2.563	CongMix	0.53	1
817.3933	2.496	IncongMix	0.563	1
819.8933	2.619	CongMix	0.519	1
822.5263	2.273	CongMix	0.59	1
824.8093	2.74	IncongMix	0.507	1
827.5593	2.896	IncongMix	0.613	1
830.4583	1.955	IncongMix	0.538	1
832.4253	2.36	IncongMix	0.627	1
834.7913	2.256	IncongMix	0.573	1
837.0573	2.797	IncongMix	0.531	1
839.8573	2.731	IncongMix	0.482	1
842.5903	1.952	CongMix	0.453	1
844.5563	2.235	IncongMix	0.535	1
846.8063	2.162	CongMix	0.445	1
848.9733	2.536	CongMix	0.486	1
851.5223	2.091	CongMix	0.441	1
853.6223	2.717	IncongMix	0.717	1
856.3553	2.126	CongMix	0.56	1
858.4883	2.693	IncongMix	0.643	1
861.1883	1.923	IncongMix	0.59	1
863.1213	2.087	CongMix	0.521	1
865.2203	1.969	CongMix	0.486	1
867.2033	1.901	IncongMix	0.551	1
869.1203	2.569	CongMix	0.602	1
871.7033	2.805	CongMix	0.555	1
874.5193	2.635	CongMix	0.435	1
877.1693	2.251	CongMix	0.401	1
879.4353	2.844	CongMix	0.511	1
882.2853	2.434	CongMix	0.5	1
884.7353	2.396	CongMix	0.546	1
887.1343	2.712	CongMix	0.595	1
889.8513	2.618	CongMix	0.534	1
892.4843	2.689	CongMix	0.573	1
895.1833	2.097	IncongMix	0.514	1
897.2833	2.25	CongMix	0.534	1
899.5493	2.584	IncongMix	0.468	1
902.1493	2.22	CongMix	0.42	1
904.3823	2.57	IncongMix	0.57	1
906.9653	2.807	CongMix	0.491	1
909.7813	2.012	IncongMix	0.595	1
911.7983	1.768	CongMix	0.53	1
924.4793	1.517	Control1	0	0
926.8963	2.415	Control1	0.415	1
929.3293	2.404	Control1	0.454	1
931.7453	2.417	Control1	0.334	1
934.1783	2.424	Control1	0.341	1
936.6113	2.405	Control1	0.372	1
939.0273	2.426	Control1	0.46	1
941.4603	2.406	Control1	0.523	1
943.8773	2.411	Control1	0.378	1
946.2933	2.428	Control1	0.378	1
948.7263	2.409	Control1	0.392	1
951.1433	2.408	Control1	0.391	1
953.5593	2.422	Control1	0.439	1
955.9923	2.409	Control1	0.31	1
958.4083	2.424	Control1	0.358	1
960.8413	2.407	Control1	0.357	1
963.2583	2.416	Control1	0.316	1
965.6913	2.417	Control1	0.267	1
968.1243	2.417	Control1	0.45	1
970.5573	2.417	Control1	0.384	1
972.9903	2.411	Control1	0.311	1
975.4063	2.417	Control1	0.367	1
977.8393	2.417	Control1	0.334	1
980.2723	2.415	Control1	0.349	1
982.7053	2.414	Control1	0.348	1
985.1213	2.416	Control1	0.3	1
987.5383	2.418	Control1	0.435	1
989.9713	2.414	Control1	0.298	1
992.3873	2.407	Control1	0.457	1
994.8043	2.42	Control1	0.336	1
997.2373	2.406	Control1	0.423	1
999.6533	2.422	Control1	0.455	1
1002.0863	2.416	Control1	0.35	1
1004.5193	2.423	Control1	0.373	1
1006.9523	2.409	Control1	0.46	1
1009.3683	2.412	Control1	0.412	1
1011.7853	2.412	Control1	0.379	1
1014.2013	2.428	Control1	0.378	1
1016.6343	2.41	Control1	0.377	1
1019.0503	2.411	Control1	0.361	1
1021.4673	2.415	Control1	0.432	1
1023.8833	2.411	Control1	0.512	1
1026.2993	2.423	Control1	0.44	1
1028.7323	2.414	Control1	0.447	1
1031.1493	2.406	Control1	0.39	1
1033.5653	2.414	Control1	0.398	1
1035.9813	2.422	Control1	0.373	1
1038.4143	2.414	Control1	0.364	1
1040.8313	2.416	Control1	0.483	1
1043.2643	2.41	Control1	0.41	1
1045.6803	2.418	Control1	0.402	1
1048.1133	2.416	Control1	0.433	1
1050.5303	2.425	Control1	0.408	1
1052.9633	2.407	Control1	0.391	1
1055.3793	2.412	Control1	0.446	1
1057.7953	2.42	Control1	0.454	1
1060.2283	2.421	Control1	0.405	1
1062.6613	2.413	Control1	0.396	1
1065.0783	2.42	Control1	0.403	1
1067.5113	2.412	Control1	0.362	1
1069.9273	2.412	Control1	0.346	1
1072.3433	2.414	Control1	0.514	1
1074.7603	2.42	Control1	0.537	1
1077.1933	2.407	Control1	0.407	1
1079.6093	2.414	Control1	0.399	1
1082.0253	2.415	Control1	0.415	1
1084.4423	2.415	Control1	0.382	1
1086.8753	2.413	Control1	0.397	1
1089.2913	2.423	Control1	0.557	1
1091.7243	2.412	Control1	0.412	1
1094.1413	2.42	Control1	0.403	1
1096.5743	1.87	Control1	0.37	1
